t,x,y,z,time_from_sync,aligned_time,time_diff_ms,gyro_x,gyro_y,gyro_z
1288.914999961853,-0.646484375,0.14208984375,0.70068359375,1255.0016667842865,1255.0,1.6667842864990234,1.28173828125,4.0283203125,-2.13623046875
1288.9199998378754,-0.666015625,0.251953125,0.78125,1255.0066666603088,1255.005000114441,1.6665458679199219,-0.8544921875,13.61083984375,-2.44140625
1288.9249999523165,-0.75048828125,0.1884765625,0.818359375,1255.01166677475,1255.0099999904637,1.6667842862716498,1.5869140625,6.89697265625,-0.6103515625
1288.9299998283386,-0.6591796875,0.2060546875,0.849609375,1255.016666650772,1255.0150001049042,1.6665458679199219,-0.79345703125,-14.5263671875,-0.42724609375
1288.9349999427795,-0.5888671875,0.22802734375,0.79736328125,1255.021666765213,1255.0199999809265,1.6667842864990234,2.62451171875,-16.11328125,-0.3662109375
1288.939999818802,-0.50732421875,0.2685546875,0.74853515625,1255.0266666412356,1255.0250000953674,1.6665458681472956,1.8310546875,-8.97216796875,-0.67138671875
1288.9449999332428,-0.55322265625,0.29443359375,0.74365234375,1255.0316667556765,1255.0299999713898,1.6667842867263971,0.8544921875,-2.9296875,-0.9765625
1288.9499998092651,-0.60888671875,0.21484375,0.71142578125,1255.0366666316986,1255.0350000858307,1.6665458679199219,2.74658203125,8.9111328125,-0.9765625
1288.954999923706,-0.69482421875,0.21142578125,0.732421875,1255.0416667461395,1255.039999961853,1.6667842864990234,0.0,9.09423828125,-1.5869140625
1288.9599997997284,-0.74365234375,0.2294921875,0.78662109375,1255.046666622162,1255.045000076294,1.6665458681472956,0.79345703125,10.498046875,-1.46484375
1288.9649999141693,-0.7216796875,0.20361328125,0.84423828125,1255.0516667366028,1255.0499999523165,1.6667842862716498,0.9765625,4.8828125,-1.0986328125
1288.9699997901917,-0.62841796875,0.23095703125,0.87939453125,1255.0566666126251,1255.0550000667572,1.6665458679199219,0.18310546875,-4.33349609375,-1.03759765625
1288.9749999046326,-0.67578125,0.3017578125,0.8271484375,1255.061666727066,1255.0599999427795,1.6667842864990234,2.38037109375,-0.8544921875,-1.28173828125
1288.979999780655,-0.62548828125,0.29833984375,0.84912109375,1255.0666666030884,1255.0650000572205,1.6665458679199219,0.91552734375,-5.7373046875,-0.732421875
1288.9849998950958,-0.59033203125,0.1884765625,0.8056640625,1255.0716667175293,1255.0700001716614,1.6665458679199219,1.64794921875,-9.033203125,-1.220703125
1288.9899997711182,-0.609375,0.146484375,0.6962890625,1255.0766665935516,1255.0750000476835,1.6665458681472956,1.28173828125,-11.65771484375,-2.50244140625
1288.994999885559,-0.61865234375,0.21728515625,0.69873046875,1255.0816667079926,1255.0800001621246,1.6665458679199219,-0.18310546875,-3.7841796875,-3.47900390625
1289.0,-0.70849609375,0.21826171875,0.74853515625,1255.0866668224337,1255.085000038147,1.6667842867263971,1.89208984375,18.98193359375,-1.77001953125
1289.0049998760223,-0.7080078125,0.197265625,0.84033203125,1255.0916666984558,1255.090000152588,1.6665458679199219,-0.3662109375,7.568359375,-0.91552734375
1289.0099999904633,-0.693359375,0.24267578125,0.89794921875,1255.0966668128967,1255.0950000286102,1.6667842864990234,0.732421875,-0.732421875,-0.3662109375
1289.0149998664856,-0.60400390625,0.25927734375,0.849609375,1255.101666688919,1255.1000001430511,1.6665458679199219,3.5400390625,-8.1787109375,0.06103515625
1289.0199999809265,-0.5732421875,0.28662109375,0.8291015625,1255.10666680336,1255.1050000190735,1.6667842864990234,0.1220703125,-14.58740234375,0.1220703125
1289.0249998569489,-0.61767578125,0.232421875,0.72607421875,1255.1116666793823,1255.1100001335144,1.6665458679199219,3.173828125,-4.45556640625,-0.244140625
1289.0299999713898,-0.68896484375,0.1669921875,0.70166015625,1255.1166667938232,1255.1150000095367,1.6667842864990234,0.30517578125,1.220703125,-1.220703125
1289.034999847412,-0.6630859375,0.1787109375,0.76806640625,1255.1216666698456,1255.120000123978,1.6665458676925482,0.244140625,12.26806640625,-1.52587890625
1289.039999961853,-0.72265625,0.19384765625,0.78466796875,1255.1266667842865,1255.125,1.6667842864990234,2.0751953125,13.36669921875,-0.8544921875
1289.0449998378754,-0.6494140625,0.2568359375,0.83740234375,1255.1316666603088,1255.130000114441,1.6665458679199219,0.18310546875,-6.9580078125,-0.3662109375
1289.0499999523165,-0.62939453125,0.27978515625,0.79638671875,1255.13666677475,1255.1349999904637,1.6667842862716498,2.8076171875,-4.82177734375,0.48828125
1289.0549998283386,-0.6171875,0.2314453125,0.79638671875,1255.141666650772,1255.1400001049042,1.6665458679199219,1.3427734375,-6.8359375,0.1220703125
1289.0599999427795,-0.57470703125,0.220703125,0.84130859375,1255.146666765213,1255.1449999809265,1.6667842864990234,0.244140625,0.0,-0.42724609375
1289.064999818802,-0.64111328125,0.1513671875,0.75537109375,1255.1516666412356,1255.1500000953674,1.6665458681472956,3.47900390625,3.47900390625,-0.79345703125
1289.0699999332428,-0.6748046875,0.19091796875,0.716796875,1255.1566667556765,1255.1549999713898,1.6667842867263971,0.06103515625,-1.953125,-1.708984375
1289.0749998092651,-0.68310546875,0.23828125,0.74560546875,1255.1616666316986,1255.1600000858307,1.6665458679199219,1.03759765625,1.40380859375,-1.03759765625
1289.079999923706,-0.67529296875,0.21240234375,0.7333984375,1255.1666667461395,1255.164999961853,1.6667842864990234,1.5869140625,-0.67138671875,-0.48828125
1289.0849997997284,-0.603515625,0.23779296875,0.751953125,1255.171666622162,1255.170000076294,1.6665458681472956,0.30517578125,-3.35693359375,-0.18310546875
1289.0899999141693,-0.61669921875,0.2744140625,0.79638671875,1255.1766667366028,1255.1749999523165,1.6667842862716498,1.77001953125,4.5166015625,0.244140625
1289.0949997901917,-0.56494140625,0.271484375,0.83349609375,1255.1816666126251,1255.1800000667572,1.6665458679199219,2.13623046875,3.173828125,0.18310546875
1289.0999999046326,-0.623046875,0.24853515625,0.78857421875,1255.186666727066,1255.1849999427795,1.6667842864990234,1.89208984375,-2.8076171875,-0.06103515625
1289.104999780655,-0.6513671875,0.2041015625,0.71826171875,1255.1916666030884,1255.1900000572205,1.6665458679199219,1.708984375,-8.72802734375,-0.67138671875
1289.1099998950958,-0.6708984375,0.1572265625,0.703125,1255.1966667175293,1255.1950001716614,1.6665458679199219,0.3662109375,0.244140625,-1.40380859375
1289.1149997711182,-0.638671875,0.142578125,0.7529296875,1255.2016665935516,1255.2000000476835,1.6665458681472956,1.15966796875,8.6669921875,-1.28173828125
1289.119999885559,-0.63671875,0.2080078125,0.81787109375,1255.2066667079926,1255.2050001621246,1.6665458679199219,0.3662109375,7.26318359375,-0.732421875
1289.125,-0.681640625,0.26513671875,0.7939453125,1255.2116668224337,1255.210000038147,1.6667842867263971,2.685546875,-2.13623046875,0.0
1289.1299998760223,-0.5947265625,0.28369140625,0.81005859375,1255.2166666984558,1255.215000152588,1.6665458679199219,1.708984375,-7.99560546875,0.06103515625
1289.1349999904633,-0.5302734375,0.296875,0.826171875,1255.2216668128967,1255.2200000286102,1.6667842864990234,1.52587890625,-5.37109375,0.54931640625
1289.1399998664856,-0.65380859375,0.1962890625,0.7021484375,1255.226666688919,1255.2250001430511,1.6665458679199219,3.0517578125,-2.44140625,0.06103515625
1289.1449999809265,-0.623046875,0.1533203125,0.67822265625,1255.23166680336,1255.2300000190735,1.6667842864990234,0.06103515625,-5.37109375,-1.3427734375
1289.1499998569489,-0.6396484375,0.185546875,0.75927734375,1255.2366666793823,1255.2350001335144,1.6665458679199219,0.48828125,10.3759765625,-1.708984375
1289.1549999713898,-0.70751953125,0.1806640625,0.7607421875,1255.2416667938232,1255.2400000095367,1.6667842864990234,2.74658203125,14.6484375,-1.28173828125
1289.159999847412,-0.67236328125,0.2333984375,0.80859375,1255.2466666698456,1255.245000123978,1.6665458676925482,0.0,1.0986328125,-0.8544921875
1289.164999961853,-0.603515625,0.25830078125,0.8310546875,1255.2516667842865,1255.25,1.6667842864990234,1.5869140625,-4.33349609375,0.1220703125
1289.1699998378754,-0.59423828125,0.22998046875,0.8037109375,1255.2566666603088,1255.255000114441,1.6665458679199219,2.5634765625,-6.77490234375,0.18310546875
1289.1749999523165,-0.59375,0.31103515625,0.76513671875,1255.26166677475,1255.2599999904637,1.6667842862716498,1.77001953125,-3.72314453125,-0.91552734375
1289.1799998283386,-0.64453125,0.25244140625,0.6875,1255.266666650772,1255.2650001049042,1.6665458679199219,3.0517578125,2.44140625,-1.0986328125
1289.1849999427795,-0.654296875,0.22119140625,0.72216796875,1255.271666765213,1255.2699999809265,1.6667842864990234,-0.42724609375,5.31005859375,-1.5869140625
1289.189999818802,-0.6875,0.1806640625,0.79736328125,1255.2766666412356,1255.2750000953674,1.6665458681472956,0.79345703125,10.7421875,-1.0986328125
1289.1949999332428,-0.65087890625,0.1591796875,0.84130859375,1255.2816667556765,1255.2799999713898,1.6667842867263971,1.3427734375,8.23974609375,-0.91552734375
1289.1999998092651,-0.72021484375,0.27294921875,0.828125,1255.2866666316986,1255.2850000858307,1.6665458679199219,2.25830078125,-0.48828125,-0.54931640625
1289.204999923706,-0.6552734375,0.31103515625,0.8076171875,1255.2916667461395,1255.289999961853,1.6667842864990234,2.50244140625,-5.7373046875,0.1220703125
1289.2099997997284,-0.552734375,0.296875,0.8388671875,1255.296666622162,1255.295000076294,1.6665458681472956,0.91552734375,-8.48388671875,0.1220703125
1289.2149999141693,-0.5810546875,0.2265625,0.740234375,1255.3016667366028,1255.2999999523165,1.6667842862716498,2.74658203125,-7.99560546875,-0.18310546875
1289.2199997901917,-0.6640625,0.19189453125,0.65966796875,1255.3066666126251,1255.3050000667572,1.6665458679199219,0.91552734375,-4.45556640625,-1.708984375
1289.2249999046326,-0.64794921875,0.2607421875,0.7197265625,1255.311666727066,1255.3099999427795,1.6667842864990234,0.0,6.77490234375,-2.44140625
1289.229999780655,-0.68505859375,0.208984375,0.76318359375,1255.3166666030884,1255.3150000572205,1.6665458679199219,2.13623046875,17.76123046875,-1.28173828125
1289.2349998950958,-0.6572265625,0.18603515625,0.8369140625,1255.3216667175293,1255.3200001716614,1.6665458679199219,-0.1220703125,5.615234375,-0.42724609375
1289.2399997711182,-0.66845703125,0.2392578125,0.8876953125,1255.3266665935516,1255.3250000476835,1.6665458681472956,0.48828125,-1.15966796875,-0.18310546875
1289.244999885559,-0.6435546875,0.26171875,0.8583984375,1255.3316667079926,1255.3300001621246,1.6665458679199219,3.35693359375,-3.72314453125,-0.1220703125
1289.25,-0.615234375,0.27490234375,0.81298828125,1255.3366668224337,1255.335000038147,1.6667842867263971,1.52587890625,-9.09423828125,-0.18310546875
1289.2549998760223,-0.630859375,0.2275390625,0.7119140625,1255.3416666984558,1255.340000152588,1.6665458679199219,2.86865234375,-8.6669921875,-0.91552734375
1289.2599999904633,-0.62841796875,0.2158203125,0.68701171875,1255.3466668128967,1255.3450000286102,1.6667842864990234,0.06103515625,-0.67138671875,-1.8310546875
1289.2649998664856,-0.66064453125,0.22900390625,0.7509765625,1255.351666688919,1255.3500001430511,1.6665458679199219,0.42724609375,14.892578125,-1.64794921875
1289.2699999809265,-0.75537109375,0.20556640625,0.7978515625,1255.35666680336,1255.3550000190735,1.6667842864990234,1.28173828125,18.00537109375,-1.03759765625
1289.2749998569489,-0.66015625,0.26708984375,0.888671875,1255.3616666793823,1255.3600001335144,1.6665458679199219,0.3662109375,-6.89697265625,-0.54931640625
1289.2799999713898,-0.60791015625,0.28515625,0.81201171875,1255.3666667938232,1255.3650000095367,1.6667842864990234,3.23486328125,-9.09423828125,-0.1220703125
1289.284999847412,-0.56298828125,0.27001953125,0.79541015625,1255.3716666698456,1255.370000123978,1.6665458676925482,0.6103515625,-13.0615234375,-0.30517578125
1289.289999961853,-0.57275390625,0.20166015625,0.7509765625,1255.3766667842865,1255.375,1.6667842864990234,1.03759765625,-5.67626953125,-0.91552734375
1289.2949998378754,-0.6328125,0.14306640625,0.67138671875,1255.3816666603088,1255.380000114441,1.6665458679199219,2.01416015625,0.42724609375,-2.44140625
1289.2999999523165,-0.623046875,0.2470703125,0.7548828125,1255.38666677475,1255.3849999904637,1.6667842862716498,-1.220703125,12.87841796875,-3.0517578125
1289.3049998283386,-0.7138671875,0.27685546875,0.78466796875,1255.391666650772,1255.3900001049042,1.6665458679199219,1.52587890625,20.32470703125,-2.3193359375
1289.3099999427795,-0.74560546875,0.236328125,0.7998046875,1255.396666765213,1255.3949999809265,1.6667842864990234,1.8310546875,10.68115234375,-0.9765625
1289.314999818802,-0.6611328125,0.279296875,0.890625,1255.4016666412356,1255.4000000953674,1.6665458681472956,-1.15966796875,-5.615234375,-0.18310546875
1289.3199999332428,-0.70263671875,0.2861328125,0.86181640625,1255.4066667556765,1255.4049999713898,1.6667842867263971,2.74658203125,-2.01416015625,-0.244140625
1289.3249998092651,-0.55224609375,0.275390625,0.85302734375,1255.4116666316986,1255.4100000858307,1.6665458679199219,-0.244140625,-13.97705078125,-0.67138671875
1289.329999923706,-0.5771484375,0.2060546875,0.759765625,1255.4166667461395,1255.414999961853,1.6667842864990234,2.5634765625,-2.99072265625,-1.52587890625
1289.3349997997284,-0.68408203125,0.1484375,0.69189453125,1255.421666622162,1255.420000076294,1.6665458681472956,0.6103515625,0.79345703125,-2.38037109375
1289.3399999141693,-0.69287109375,0.2001953125,0.7490234375,1255.4266667366028,1255.4249999523165,1.6667842862716498,-0.67138671875,9.46044921875,-3.23486328125
1289.3449997901917,-0.71435546875,0.20849609375,0.80615234375,1255.4316666126251,1255.4300000667572,1.6665458679199219,1.52587890625,14.16015625,-2.25830078125
1289.3499999046326,-0.67626953125,0.24267578125,0.8623046875,1255.436666727066,1255.4349999427795,1.6667842864990234,0.1220703125,-3.7841796875,-0.6103515625
1289.354999780655,-0.68310546875,0.29931640625,0.8203125,1255.4416666030884,1255.4400000572205,1.6665458679199219,2.74658203125,-3.23486328125,0.0
1289.3599998950958,-0.57568359375,0.31396484375,0.8134765625,1255.4466667175293,1255.4450001716614,1.6665458679199219,2.74658203125,-11.04736328125,0.18310546875
1289.3649997711182,-0.5556640625,0.26611328125,0.7666015625,1255.4516665935516,1255.4500000476835,1.6665458681472956,1.03759765625,-13.48876953125,0.42724609375
1289.369999885559,-0.625,0.14697265625,0.66357421875,1255.4566667079926,1255.4550001621246,1.6665458679199219,1.89208984375,-7.75146484375,-0.48828125
1289.375,-0.61572265625,0.1142578125,0.677734375,1255.4616668224337,1255.460000038147,1.6667842867263971,-0.244140625,5.4931640625,-2.3193359375
1289.3799998760223,-0.65185546875,0.2109375,0.77587890625,1255.4666666984558,1255.465000152588,1.6665458679199219,0.18310546875,22.94921875,-2.44140625
1289.3849999904633,-0.72900390625,0.25732421875,0.81298828125,1255.4716668128967,1255.4700000286102,1.6667842864990234,2.25830078125,18.06640625,-0.9765625
1289.3899998664856,-0.7138671875,0.26953125,0.8486328125,1255.476666688919,1255.4750001430511,1.6665458679199219,0.1220703125,-4.82177734375,-0.18310546875
1289.3949999809265,-0.62255859375,0.25830078125,0.84619140625,1255.48166680336,1255.4800000190735,1.6667842864990234,1.5869140625,-13.5498046875,0.1220703125
1289.3999998569489,-0.50927734375,0.287109375,0.775390625,1255.4866666793823,1255.4850001335144,1.6665458679199219,1.0986328125,-12.0849609375,-0.54931640625
1289.4049999713898,-0.54833984375,0.29150390625,0.72314453125,1255.4916667938232,1255.4900000095367,1.6667842864990234,2.50244140625,0.18310546875,-1.03759765625
1289.409999847412,-0.61572265625,0.220703125,0.6630859375,1255.4966666698456,1255.495000123978,1.6665458676925482,2.0751953125,3.96728515625,-1.3427734375
1289.414999961853,-0.70703125,0.1748046875,0.74609375,1255.5016667842865,1255.5,1.6667842864990234,-1.46484375,18.1884765625,-1.77001953125
1289.4199998378754,-0.73291015625,0.158203125,0.85693359375,1255.5066666603088,1255.505000114441,1.6665458679199219,1.03759765625,20.263671875,-1.46484375
1289.4249999523165,-0.68359375,0.21630859375,0.900390625,1255.51166677475,1255.5099999904637,1.6667842862716498,0.732421875,3.173828125,-1.220703125
1289.4299998283386,-0.666015625,0.3154296875,0.85888671875,1255.516666650772,1255.5150001049042,1.6665458679199219,1.28173828125,-10.3759765625,-0.3662109375
1289.4349999427795,-0.65869140625,0.31103515625,0.76171875,1255.521666765213,1255.5199999809265,1.6667842864990234,3.173828125,-11.90185546875,0.42724609375
1289.439999818802,-0.556640625,0.275390625,0.7763671875,1255.5266666412356,1255.5250000953674,1.6665458681472956,0.18310546875,-14.2822265625,0.06103515625
1289.4449999332428,-0.53271484375,0.21875,0.7421875,1255.5316667556765,1255.5299999713898,1.6667842867263971,1.708984375,-5.9814453125,-0.48828125
1289.4499998092651,-0.658203125,0.15087890625,0.62890625,1255.5366666316986,1255.5350000858307,1.6665458679199219,0.3662109375,-0.06103515625,-2.44140625
1289.454999923706,-0.63330078125,0.2265625,0.728515625,1255.5416667461395,1255.539999961853,1.6667842864990234,-0.732421875,15.68603515625,-2.38037109375
1289.4599997997284,-0.69287109375,0.18994140625,0.80615234375,1255.546666622162,1255.545000076294,1.6665458681472956,2.01416015625,23.8037109375,-0.54931640625
1289.4649999141693,-0.68017578125,0.16650390625,0.8564453125,1255.5516667366028,1255.5499999523165,1.6667842862716498,-0.1220703125,1.28173828125,0.30517578125
1289.4699997901917,-0.673828125,0.1875,0.84912109375,1255.5566666126251,1255.5550000667572,1.6665458679199219,0.732421875,-10.55908203125,0.79345703125
1289.4749999046326,-0.5380859375,0.2890625,0.85595703125,1255.561666727066,1255.5599999427795,1.6667842864990234,1.3427734375,-2.99072265625,0.48828125
1289.479999780655,-0.634765625,0.30810546875,0.7744140625,1255.5666666030884,1255.5650000572205,1.6665458679199219,2.44140625,5.37109375,0.244140625
1289.4849998950958,-0.68701171875,0.2412109375,0.70751953125,1255.5716667175293,1255.5700001716614,1.6665458679199219,1.28173828125,-5.9814453125,-0.244140625
1289.4899997711182,-0.6416015625,0.20458984375,0.71630859375,1255.5766665935516,1255.5750000476835,1.6665458681472956,-1.46484375,-5.92041015625,-1.89208984375
1289.494999885559,-0.65283203125,0.1982421875,0.712890625,1255.5816667079926,1255.5800001621246,1.6665458679199219,0.42724609375,1.220703125,-2.74658203125
1289.5,-0.64990234375,0.24755859375,0.72412109375,1255.5866668224337,1255.585000038147,1.6667842867263971,0.1220703125,6.04248046875,-3.5400390625
1289.5049998760223,-0.5927734375,0.32666015625,0.7802734375,1255.5916666984558,1255.590000152588,1.6665458679199219,-0.06103515625,2.62451171875,-3.173828125
1289.5099999904633,-0.580078125,0.29052734375,0.76904296875,1255.5966668128967,1255.5950000286102,1.6667842864990234,1.89208984375,-1.15966796875,-2.38037109375
1289.5149998664856,-0.5517578125,0.2265625,0.78271484375,1255.601666688919,1255.6000001430511,1.6665458679199219,0.0,-11.3525390625,-2.38037109375
1289.5199999809265,-0.5625,0.20556640625,0.77099609375,1255.60666680336,1255.6050000190735,1.6667842864990234,0.79345703125,-1.40380859375,-3.60107421875
1289.5249998569489,-0.66796875,0.21044921875,0.67578125,1255.6116666793823,1255.6100001335144,1.6665458679199219,1.46484375,9.3994140625,-3.72314453125
1289.5299999713898,-0.65234375,0.2216796875,0.77587890625,1255.6166667938232,1255.6150000095367,1.6667842864990234,-0.79345703125,7.75146484375,-2.25830078125
1289.534999847412,-0.66943359375,0.17236328125,0.8134765625,1255.6216666698456,1255.620000123978,1.6665458676925482,1.708984375,9.70458984375,-1.708984375
1289.539999961853,-0.68212890625,0.1923828125,0.8115234375,1255.6266667842865,1255.625,1.6667842864990234,1.220703125,4.5166015625,-0.9765625
1289.5449998378754,-0.697265625,0.28125,0.8486328125,1255.6316666603088,1255.630000114441,1.6665458679199219,0.42724609375,1.40380859375,-0.1220703125
1289.5499999523165,-0.6044921875,0.24267578125,0.8544921875,1255.63666677475,1255.6349999904637,1.6667842862716498,2.50244140625,-7.2021484375,1.03759765625
1289.5549998283386,-0.57470703125,0.2265625,0.8564453125,1255.641666650772,1255.6400001049042,1.6665458679199219,0.30517578125,-7.080078125,0.79345703125
1289.5599999427795,-0.65283203125,0.19921875,0.7353515625,1255.646666765213,1255.6449999809265,1.6667842864990234,3.47900390625,-0.91552734375,-0.18310546875
1289.564999818802,-0.74072265625,0.17919921875,0.712890625,1255.6516666412356,1255.6500000953674,1.6665458681472956,0.0,4.39453125,-1.28173828125
1289.5699999332428,-0.68017578125,0.19921875,0.79345703125,1255.6566667556765,1255.6549999713898,1.6667842867263971,0.18310546875,7.01904296875,-1.40380859375
1289.5749998092651,-0.69189453125,0.18896484375,0.80126953125,1255.6616666316986,1255.6600000858307,1.6665458679199219,1.3427734375,8.23974609375,-0.8544921875
1289.579999923706,-0.67578125,0.2353515625,0.8291015625,1255.6666667461395,1255.664999961853,1.6667842864990234,-0.18310546875,-1.708984375,-0.30517578125
1289.5849997997284,-0.6630859375,0.2431640625,0.82763671875,1255.671666622162,1255.670000076294,1.6665458681472956,2.0751953125,-0.06103515625,0.18310546875
1289.5899999141693,-0.59423828125,0.2607421875,0.83056640625,1255.6766667366028,1255.6749999523165,1.6667842862716498,1.8310546875,-6.04248046875,0.6103515625
1289.5949997901917,-0.57373046875,0.27978515625,0.84228515625,1255.6816666126251,1255.6800000667572,1.6665458679199219,-0.1220703125,-6.103515625,0.3662109375
1289.5999999046326,-0.65625,0.14306640625,0.6962890625,1255.686666727066,1255.6849999427795,1.6667842864990234,1.953125,-3.41796875,-0.9765625
1289.604999780655,-0.6259765625,0.1611328125,0.73046875,1255.6916666030884,1255.6900000572205,1.6665458679199219,-1.40380859375,1.28173828125,-2.44140625
1289.6099998950958,-0.6591796875,0.2373046875,0.7763671875,1255.6966667175293,1255.6950001716614,1.6665458679199219,1.220703125,14.22119140625,-2.13623046875
1289.6149997711182,-0.736328125,0.26416015625,0.7802734375,1255.7016665935516,1255.7000000476835,1.6665458681472956,0.54931640625,9.94873046875,-1.46484375
1289.619999885559,-0.654296875,0.3037109375,0.82373046875,1255.7066667079926,1255.7050001621246,1.6665458679199219,-0.1220703125,-4.21142578125,-1.3427734375
1289.625,-0.51220703125,0.33447265625,0.80908203125,1255.7116668224337,1255.710000038147,1.6667842867263971,2.38037109375,-10.8642578125,-1.5869140625
1289.6299998760223,-0.52099609375,0.33935546875,0.76123046875,1255.7166666984558,1255.715000152588,1.6665458679199219,0.6103515625,-12.39013671875,-2.44140625
1289.6349999904633,-0.54052734375,0.27001953125,0.6630859375,1255.7216668128967,1255.7200000286102,1.6667842864990234,2.25830078125,-5.126953125,-3.173828125
1289.6399998664856,-0.6494140625,0.15478515625,0.62158203125,1255.726666688919,1255.7250001430511,1.6665458679199219,0.54931640625,4.21142578125,-4.0283203125
1289.6449999809265,-0.69189453125,0.158203125,0.77001953125,1255.73166680336,1255.7300000190735,1.6667842864990234,-1.64794921875,23.4375,-4.5166015625
1289.6499998569489,-0.775390625,0.1708984375,0.869140625,1255.7366666793823,1255.7350001335144,1.6665458679199219,1.8310546875,34.7900390625,-3.11279296875
1289.6549999713898,-0.705078125,0.20263671875,0.9052734375,1255.7416667938232,1255.7400000095367,1.6667842864990234,1.220703125,0.18310546875,-1.15966796875
1289.659999847412,-0.64892578125,0.2724609375,0.87841796875,1255.7466666698456,1255.745000123978,1.6665458676925482,0.6103515625,-26.42822265625,0.0
1289.664999961853,-0.625,0.3115234375,0.76708984375,1255.7516667842865,1255.75,1.6667842864990234,4.150390625,-12.14599609375,0.18310546875
1289.6699998378754,-0.58642578125,0.27685546875,0.736328125,1255.7566666603088,1255.755000114441,1.6665458679199219,1.64794921875,-3.41796875,0.42724609375
1289.6749999523165,-0.6142578125,0.130859375,0.69580078125,1255.76166677475,1255.7599999904637,1.6667842862716498,1.5869140625,-2.5634765625,0.30517578125
1289.6799998283386,-0.63525390625,0.078125,0.732421875,1255.766666650772,1255.7650001049042,1.6665458679199219,-0.244140625,2.0751953125,-1.52587890625
1289.6849999427795,-0.65771484375,0.1982421875,0.77783203125,1255.771666765213,1255.7699999809265,1.6667842864990234,0.79345703125,19.53125,-1.8310546875
1289.689999818802,-0.78369140625,0.21875,0.77490234375,1255.7766666412356,1255.7750000953674,1.6665458681472956,2.5634765625,18.1884765625,-0.06103515625
1289.6949999332428,-0.6416015625,0.2353515625,0.888671875,1255.7816667556765,1255.7799999713898,1.6667842867263971,-0.67138671875,-6.7138671875,1.03759765625
1289.6999998092651,-0.57421875,0.25341796875,0.779296875,1255.7866666316986,1255.7850000858307,1.6665458679199219,4.150390625,-11.1083984375,1.220703125
1289.704999923706,-0.50732421875,0.3232421875,0.72509765625,1255.7916667461395,1255.789999961853,1.6667842864990234,1.03759765625,-15.0146484375,0.3662109375
1289.7099997997284,-0.560546875,0.26806640625,0.673828125,1255.796666622162,1255.795000076294,1.6665458681472956,2.01416015625,-0.42724609375,-0.42724609375
1289.7149999141693,-0.64794921875,0.16259765625,0.62353515625,1255.8016667366028,1255.7999999523165,1.6667842862716498,1.52587890625,2.01416015625,-2.01416015625
1289.7199997901917,-0.68115234375,0.17626953125,0.6533203125,1255.8066666126251,1255.8050000667572,1.6665458679199219,-1.8310546875,14.46533203125,-2.8076171875
1289.7249999046326,-0.68359375,0.1953125,0.77978515625,1255.811666727066,1255.8099999427795,1.6667842864990234,0.79345703125,18.37158203125,-1.953125
1289.729999780655,-0.69189453125,0.158203125,0.85205078125,1255.8166666030884,1255.8150000572205,1.6665458679199219,0.6103515625,12.87841796875,-1.0986328125
1289.7349998950958,-0.650390625,0.20654296875,0.88134765625,1255.8216667175293,1255.8200001716614,1.6665458679199219,0.79345703125,-3.90625,-0.244140625
1289.7399997711182,-0.66455078125,0.24755859375,0.81396484375,1255.8266665935516,1255.8250000476835,1.6665458681472956,2.86865234375,-5.37109375,0.244140625
1289.744999885559,-0.60595703125,0.267578125,0.8056640625,1255.8316667079926,1255.8300001621246,1.6665458679199219,1.03759765625,-11.962890625,0.1220703125
1289.75,-0.57080078125,0.171875,0.69482421875,1255.8366668224337,1255.835000038147,1.6667842867263971,2.44140625,-6.103515625,-1.220703125
1289.7549998760223,-0.6005859375,0.23388671875,0.671875,1255.8416666984558,1255.840000152588,1.6665458679199219,-0.48828125,2.44140625,-2.99072265625
1289.7599999904633,-0.673828125,0.30322265625,0.697265625,1255.8466668128967,1255.8450000286102,1.6667842864990234,0.732421875,14.95361328125,-3.11279296875
1289.7649998664856,-0.6455078125,0.24169921875,0.7294921875,1255.851666688919,1255.8500001430511,1.6665458679199219,1.46484375,10.07080078125,-2.0751953125
1289.7699999809265,-0.6513671875,0.1796875,0.771484375,1255.85666680336,1255.8550000190735,1.6667842864990234,-0.9765625,-0.244140625,-2.01416015625
1289.7749998569489,-0.6220703125,0.2451171875,0.7734375,1255.8616666793823,1255.8600001335144,1.6665458679199219,1.8310546875,-1.64794921875,-2.3193359375
1289.7799999713898,-0.52685546875,0.25341796875,0.7841796875,1255.8666667938232,1255.8650000095367,1.6667842864990234,1.5869140625,-3.72314453125,-1.953125
1289.784999847412,-0.60693359375,0.21142578125,0.76513671875,1255.8716666698456,1255.870000123978,1.6665458676925482,1.28173828125,3.90625,-1.46484375
1289.789999961853,-0.65625,0.14892578125,0.73193359375,1255.8766667842865,1255.875,1.6667842864990234,2.01416015625,3.7841796875,-1.5869140625
1289.7949998378754,-0.697265625,0.125,0.732421875,1255.8816666603088,1255.880000114441,1.6665458679199219,0.1220703125,1.77001953125,-1.52587890625
1289.7999999523165,-0.68798828125,0.1650390625,0.75537109375,1255.88666677475,1255.8849999904637,1.6667842862716498,1.89208984375,7.32421875,-0.91552734375
1289.8049998283386,-0.66845703125,0.236328125,0.775390625,1255.891666650772,1255.8900001049042,1.6665458679199219,1.64794921875,6.40869140625,0.1220703125
1289.8099999427795,-0.67333984375,0.2802734375,0.814453125,1255.896666765213,1255.8949999809265,1.6667842864990234,0.9765625,-1.8310546875,1.3427734375
1289.814999818802,-0.60302734375,0.22216796875,0.79931640625,1255.9016666412356,1255.9000000953674,1.6665458681472956,2.50244140625,-2.99072265625,1.953125
1289.8199999332428,-0.59814453125,0.17822265625,0.83251953125,1255.9066667556765,1255.9049999713898,1.6667842867263971,1.0986328125,-3.96728515625,1.46484375
1289.8249998092651,-0.6396484375,0.2197265625,0.82080078125,1255.9116666316986,1255.9100000858307,1.6665458679199219,3.35693359375,7.87353515625,-0.06103515625
1289.829999923706,-0.7119140625,0.20458984375,0.7294921875,1255.9166667461395,1255.914999961853,1.6667842864990234,2.86865234375,3.84521484375,-0.42724609375
1289.8349997997284,-0.6669921875,0.244140625,0.80615234375,1255.921666622162,1255.920000076294,1.6665458681472956,-0.8544921875,-0.30517578125,-0.67138671875
1289.8399999141693,-0.708984375,0.22216796875,0.798828125,1255.9266667366028,1255.9249999523165,1.6667842862716498,2.50244140625,6.65283203125,-0.67138671875
1289.8449997901917,-0.70849609375,0.22509765625,0.78271484375,1255.9316666126251,1255.9300000667572,1.6665458679199219,0.48828125,-0.8544921875,-1.03759765625
1289.8499999046326,-0.6015625,0.28173828125,0.8056640625,1255.936666727066,1255.9349999427795,1.6667842864990234,0.30517578125,-6.34765625,-1.0986328125
1289.854999780655,-0.6474609375,0.27978515625,0.78125,1255.9416666030884,1255.9400000572205,1.6665458679199219,2.50244140625,-2.5634765625,-0.732421875
1289.8599998950958,-0.52392578125,0.26416015625,0.79150390625,1255.9466667175293,1255.9450001716614,1.6665458679199219,0.91552734375,-9.09423828125,-1.15966796875
1289.8649997711182,-0.5625,0.2236328125,0.763671875,1255.9516665935516,1255.9500000476835,1.6665458681472956,0.79345703125,1.15966796875,-1.28173828125
1289.869999885559,-0.6826171875,0.15869140625,0.693359375,1255.9566667079926,1255.9550001621246,1.6665458679199219,2.38037109375,6.89697265625,-1.708984375
1289.875,-0.70556640625,0.17236328125,0.7587890625,1255.9616668224337,1255.960000038147,1.6667842867263971,0.0,7.99560546875,-2.197265625
1289.8799998760223,-0.6474609375,0.173828125,0.81494140625,1255.9666666984558,1255.965000152588,1.6665458679199219,1.15966796875,3.5400390625,-1.28173828125
1289.8849999904633,-0.5712890625,0.2626953125,0.80224609375,1255.9716668128967,1255.9700000286102,1.6667842864990234,1.15966796875,-10.498046875,-1.46484375
1289.8899998664856,-0.64306640625,0.33203125,0.6943359375,1255.976666688919,1255.9750001430511,1.6665458679199219,3.0517578125,-8.1787109375,-1.3427734375
1289.8949999809265,-0.544921875,0.34765625,0.69091796875,1255.98166680336,1255.9800000190735,1.6667842864990234,3.0517578125,-4.57763671875,-1.03759765625
1289.8999998569489,-0.583984375,0.27490234375,0.716796875,1255.9866666793823,1255.9850001335144,1.6665458679199219,2.62451171875,4.69970703125,-1.0986328125
1289.9049999713898,-0.64892578125,0.10107421875,0.6943359375,1255.9916667938232,1255.9900000095367,1.6667842864990234,-0.1220703125,6.16455078125,-3.35693359375
1289.909999847412,-0.72900390625,0.19140625,0.79150390625,1255.9966666698456,1255.995000123978,1.6665458676925482,-0.18310546875,21.78955078125,-3.60107421875
1289.914999961853,-0.71630859375,0.20751953125,0.859375,1256.0016667842865,1256.0,1.6667842864990234,3.662109375,21.484375,-1.708984375
1289.9199998378754,-0.6640625,0.19970703125,0.87939453125,1256.0066666603088,1256.005000114441,1.6665458679199219,0.48828125,-8.4228515625,-0.1220703125
1289.9249999523165,-0.5947265625,0.20654296875,0.841796875,1256.01166677475,1256.0099999904637,1.6667842862716498,1.52587890625,-20.99609375,0.3662109375
1289.9299998283386,-0.61279296875,0.19384765625,0.76513671875,1256.016666650772,1256.0150001049042,1.6665458679199219,3.173828125,-5.37109375,0.06103515625
1289.9349999427795,-0.56689453125,0.205078125,0.75146484375,1256.021666765213,1256.0199999809265,1.6667842864990234,2.44140625,2.197265625,-0.42724609375
1289.939999818802,-0.58154296875,0.22314453125,0.73486328125,1256.0266666412356,1256.0250000953674,1.6665458681472956,2.25830078125,1.0986328125,0.0
1289.9449999332428,-0.63525390625,0.21142578125,0.70947265625,1256.0316667556765,1256.0299999713898,1.6667842867263971,2.25830078125,1.3427734375,-0.48828125
1289.9499998092651,-0.68115234375,0.1875,0.724609375,1256.0366666316986,1256.0350000858307,1.6665458679199219,1.52587890625,12.14599609375,-0.30517578125
1289.954999923706,-0.72021484375,0.13818359375,0.77490234375,1256.0416667461395,1256.039999961853,1.6667842864990234,1.28173828125,7.32421875,-0.18310546875
1289.9599997997284,-0.6552734375,0.25439453125,0.87939453125,1256.046666622162,1256.045000076294,1.6665458681472956,0.3662109375,2.01416015625,-0.244140625
1289.9649999141693,-0.67431640625,0.3271484375,0.802734375,1256.0516667366028,1256.0499999523165,1.6667842862716498,4.5166015625,-1.3427734375,0.1220703125
1289.9699997901917,-0.6083984375,0.291015625,0.72216796875,1256.0566666126251,1256.0550000667572,1.6665458679199219,2.74658203125,-15.869140625,0.3662109375
1289.9749999046326,-0.49658203125,0.173828125,0.69775390625,1256.061666727066,1256.0599999427795,1.6667842864990234,1.46484375,-17.2119140625,-0.54931640625
1289.979999780655,-0.58984375,0.1123046875,0.5634765625,1256.0666666030884,1256.0650000572205,1.6665458679199219,3.0517578125,0.244140625,-2.62451171875
1289.9849998950958,-0.6279296875,0.22705078125,0.61669921875,1256.0716667175293,1256.0700001716614,1.6665458679199219,0.0,17.822265625,-3.60107421875
1289.9899997711182,-0.6904296875,0.27587890625,0.78173828125,1256.0766665935516,1256.0750000476835,1.6665458681472956,1.77001953125,36.43798828125,-1.77001953125
1289.994999885559,-0.71826171875,0.23388671875,0.90185546875,1256.0816667079926,1256.0800001621246,1.6665458679199219,1.28173828125,23.25439453125,-0.1220703125
1290.0,-0.62939453125,0.15087890625,0.64404296875,1256.0866668224337,1256.085000038147,1.6667842867263971,1.953125,1.953125,-2.01416015625
1290.0049998760223,-0.62939453125,0.06982421875,0.69189453125,1256.0916666984558,1256.090000152588,1.6665458679199219,-0.42724609375,13.0615234375,-3.35693359375
1290.0099999904633,-0.75048828125,0.0869140625,0.7783203125,1256.0966668128967,1256.0950000286102,1.6667842864990234,0.18310546875,27.52685546875,-3.662109375
1290.0149998664856,-0.76416015625,0.2080078125,0.83544921875,1256.101666688919,1256.1000001430511,1.6665458679199219,2.5634765625,15.869140625,-3.5400390625
1290.0199999809265,-0.666015625,0.34423828125,0.8564453125,1256.10666680336,1256.1050000190735,1.6667842864990234,1.03759765625,-7.75146484375,-2.38037109375
1290.0249998569489,-0.552734375,0.3037109375,0.71142578125,1256.1116666793823,1256.1100001335144,1.6665458679199219,2.99072265625,-27.52685546875,-0.42724609375
1290.0299999713898,-0.47802734375,0.19287109375,0.65771484375,1256.1166667938232,1256.1150000095367,1.6667842864990234,1.220703125,-20.69091796875,-1.5869140625
1290.034999847412,-0.47119140625,0.14599609375,0.67578125,1256.1216666698456,1256.120000123978,1.6665458676925482,0.8544921875,2.74658203125,-2.99072265625
1290.039999961853,-0.5869140625,0.099609375,0.63330078125,1256.1266667842865,1256.125,1.6667842864990234,3.2958984375,21.240234375,-3.47900390625
1290.0449998378754,-0.74658203125,0.15380859375,0.70751953125,1256.1316666603088,1256.130000114441,1.6665458679199219,0.0,26.06201171875,-3.72314453125
1290.0499999523165,-0.78271484375,0.24658203125,0.85986328125,1256.13666677475,1256.1349999904637,1.6667842862716498,3.2958984375,12.63427734375,-1.5869140625
1290.0549998283386,-0.65576171875,0.26123046875,0.84130859375,1256.141666650772,1256.1400001049042,1.6665458679199219,2.50244140625,-15.869140625,0.48828125
1290.0599999427795,-0.654296875,0.27978515625,0.7841796875,1256.146666765213,1256.1449999809265,1.6667842864990234,2.38037109375,-25.390625,1.0986328125
1290.064999818802,-0.55224609375,0.2841796875,0.7236328125,1256.1516666412356,1256.1500000953674,1.6665458681472956,4.2724609375,-12.0849609375,1.15966796875
1290.0699999332428,-0.4677734375,0.2578125,0.76220703125,1256.1566667556765,1256.1549999713898,1.6667842867263971,2.25830078125,-2.197265625,1.03759765625
1290.0749998092651,-0.6025390625,0.15673828125,0.72314453125,1256.1616666316986,1256.1600000858307,1.6665458679199219,3.11279296875,12.939453125,0.42724609375
1290.079999923706,-0.73876953125,0.115234375,0.72509765625,1256.1666667461395,1256.164999961853,1.6667842864990234,2.38037109375,11.53564453125,-1.15966796875
1290.0849997997284,-0.7255859375,0.18701171875,0.8017578125,1256.171666622162,1256.170000076294,1.6665458681472956,0.91552734375,13.12255859375,-1.77001953125
1290.0899999141693,-0.71923828125,0.1630859375,0.81103515625,1256.1766667366028,1256.1749999523165,1.6667842862716498,3.11279296875,5.31005859375,-0.8544921875
1290.0949997901917,-0.65625,0.197265625,0.8203125,1256.1816666126251,1256.1800000667572,1.6665458679199219,0.8544921875,-9.82666015625,-0.79345703125
1290.0999999046326,-0.60595703125,0.2890625,0.76513671875,1256.186666727066,1256.1849999427795,1.6667842864990234,3.90625,-5.55419921875,-0.54931640625
1290.104999780655,-0.5927734375,0.33349609375,0.76904296875,1256.1916666030884,1256.1900000572205,1.6665458679199219,2.99072265625,0.54931640625,-0.244140625
1290.1099998950958,-0.60400390625,0.30224609375,0.81298828125,1256.1966667175293,1256.1950001716614,1.6665458679199219,2.197265625,4.21142578125,-0.18310546875
1290.1149997711182,-0.64892578125,0.17236328125,0.75537109375,1256.2016665935516,1256.2000000476835,1.6665458681472956,3.72314453125,0.54931640625,-1.3427734375
1290.119999885559,-0.67431640625,0.17578125,0.72705078125,1256.2066667079926,1256.2050001621246,1.6665458679199219,0.79345703125,-0.67138671875,-2.99072265625
1290.125,-0.73388671875,0.1962890625,0.7744140625,1256.2116668224337,1256.210000038147,1.6667842867263971,2.9296875,12.39013671875,-2.99072265625
1290.1299998760223,-0.71826171875,0.208984375,0.81298828125,1256.2166666984558,1256.215000152588,1.6665458679199219,1.28173828125,2.9296875,-2.5634765625
1290.1349999904633,-0.62451171875,0.23583984375,0.833984375,1256.2216668128967,1256.2200000286102,1.6667842864990234,2.197265625,-7.99560546875,-1.8310546875
1290.1399998664856,-0.61279296875,0.26123046875,0.8076171875,1256.226666688919,1256.2250001430511,1.6665458679199219,3.2958984375,-3.11279296875,-1.708984375
1290.1449999809265,-0.568359375,0.2744140625,0.8212890625,1256.23166680336,1256.2300000190735,1.6667842864990234,3.60107421875,-3.41796875,-1.8310546875
1290.1499998569489,-0.61279296875,0.2900390625,0.794921875,1256.2366666793823,1256.2350001335144,1.6665458679199219,2.9296875,2.44140625,-2.01416015625
1290.1549999713898,-0.697265625,0.251953125,0.7314453125,1256.2416667938232,1256.2400000095367,1.6667842864990234,3.90625,4.5166015625,-2.13623046875
1290.159999847412,-0.751953125,0.212890625,0.74853515625,1256.2466666698456,1256.245000123978,1.6665458676925482,0.79345703125,4.33349609375,-2.74658203125
1290.164999961853,-0.69921875,0.166015625,0.82080078125,1256.2516667842865,1256.25,1.6667842864990234,1.953125,6.65283203125,-2.9296875
1290.1699998378754,-0.66552734375,0.17578125,0.845703125,1256.2566666603088,1256.255000114441,1.6665458679199219,2.01416015625,4.7607421875,-3.11279296875
1290.1749999523165,-0.68310546875,0.2998046875,0.84521484375,1256.26166677475,1256.2599999904637,1.6667842862716498,2.50244140625,-1.15966796875,-2.86865234375
1290.1799998283386,-0.6865234375,0.30078125,0.80908203125,1256.266666650772,1256.2650001049042,1.6665458679199219,3.72314453125,0.732421875,-2.62451171875
1290.1849999427795,-0.5810546875,0.2626953125,0.8515625,1256.271666765213,1256.2699999809265,1.6667842864990234,1.8310546875,-4.8828125,-2.50244140625
1290.189999818802,-0.6162109375,0.2138671875,0.8076171875,1256.2766666412356,1256.2750000953674,1.6665458681472956,3.11279296875,-9.6435546875,-2.9296875
1290.1949999332428,-0.63720703125,0.17236328125,0.67919921875,1256.2816667556765,1256.2799999713898,1.6667842867263971,3.11279296875,-11.41357421875,-4.21142578125
1290.1999998092651,-0.60693359375,0.216796875,0.66796875,1256.2866666316986,1256.2850000858307,1.6665458679199219,0.67138671875,-1.77001953125,-5.0048828125
1290.204999923706,-0.64892578125,0.19189453125,0.712890625,1256.2916667461395,1256.289999961853,1.6667842864990234,2.01416015625,13.36669921875,-4.45556640625
1290.2099997997284,-0.69482421875,0.11962890625,0.7666015625,1256.296666622162,1256.295000076294,1.6665458681472956,1.0986328125,10.7421875,-3.96728515625
1290.2149999141693,-0.62451171875,0.1806640625,0.83740234375,1256.3016667366028,1256.2999999523165,1.6667842862716498,1.28173828125,-1.0986328125,-3.90625
1290.2199997901917,-0.6005859375,0.28955078125,0.82861328125,1256.3066666126251,1256.3050000667572,1.6665458679199219,3.96728515625,1.64794921875,-3.173828125
1290.2249999046326,-0.63623046875,0.2861328125,0.75927734375,1256.311666727066,1256.3099999427795,1.6667842864990234,3.11279296875,-7.38525390625,-1.708984375
1290.229999780655,-0.61376953125,0.18701171875,0.66015625,1256.3166666030884,1256.3150000572205,1.6665458679199219,3.41796875,-17.333984375,-1.953125
1290.2349998950958,-0.60400390625,0.16064453125,0.61865234375,1256.3216667175293,1256.3200001716614,1.6665458679199219,1.40380859375,-11.71875,-2.99072265625
1290.2399997711182,-0.6298828125,0.18994140625,0.63134765625,1256.3266665935516,1256.3250000476835,1.6665458681472956,1.89208984375,6.40869140625,-3.96728515625
1290.244999885559,-0.650390625,0.18408203125,0.68994140625,1256.3316667079926,1256.3300001621246,1.6665458679199219,2.44140625,20.6298828125,-3.662109375
1290.25,-0.623046875,0.22265625,0.82373046875,1256.3366668224337,1256.335000038147,1.6667842867263971,1.52587890625,1.77001953125,-2.50244140625
1290.2549998760223,-0.64453125,0.2451171875,0.7802734375,1256.3416666984558,1256.340000152588,1.6665458679199219,3.72314453125,-5.0048828125,-2.197265625
1290.2599999904633,-0.55712890625,0.26416015625,0.7890625,1256.3466668128967,1256.3450000286102,1.6667842864990234,1.953125,-11.29150390625,-1.953125
1290.2649998664856,-0.552734375,0.16455078125,0.7197265625,1256.351666688919,1256.3500001430511,1.6665458679199219,3.47900390625,-4.150390625,-1.64794921875
1290.2699999809265,-0.58447265625,0.095703125,0.64208984375,1256.35666680336,1256.3550000190735,1.6667842864990234,2.5634765625,-6.7138671875,-2.38037109375
1290.2749998569489,-0.64306640625,0.18408203125,0.66015625,1256.3616666793823,1256.3600001335144,1.6665458679199219,1.03759765625,6.40869140625,-3.47900390625
1290.2799999713898,-0.61572265625,0.23291015625,0.68896484375,1256.3666667938232,1256.3650000095367,1.6667842864990234,3.84521484375,15.5029296875,-2.99072265625
1290.284999847412,-0.6923828125,0.21337890625,0.724609375,1256.3716666698456,1256.370000123978,1.6665458676925482,2.50244140625,10.8642578125,-1.8310546875
1290.289999961853,-0.63427734375,0.21875,0.7802734375,1256.3766667842865,1256.375,1.6667842864990234,1.64794921875,-6.89697265625,-1.5869140625
1290.2949998378754,-0.6015625,0.23779296875,0.7705078125,1256.3816666603088,1256.380000114441,1.6665458679199219,3.47900390625,-3.5400390625,-1.52587890625
1290.2999999523165,-0.56005859375,0.27587890625,0.77685546875,1256.38666677475,1256.3849999904637,1.6667842862716498,2.0751953125,-1.28173828125,-1.15966796875
1290.3049998283386,-0.62939453125,0.19189453125,0.69580078125,1256.391666650772,1256.3900001049042,1.6665458679199219,4.638671875,1.89208984375,-1.708984375
1290.3099999427795,-0.6748046875,0.15576171875,0.6796875,1256.396666765213,1256.3949999809265,1.6667842864990234,1.40380859375,-3.11279296875,-2.86865234375
1290.314999818802,-0.6123046875,0.2001953125,0.71240234375,1256.4016666412356,1256.4000000953674,1.6665458681472956,2.13623046875,6.2255859375,-3.47900390625
1290.3199999332428,-0.72265625,0.197265625,0.7119140625,1256.4066667556765,1256.4049999713898,1.6667842867263971,3.0517578125,11.77978515625,-2.99072265625
1290.3249998092651,-0.67041015625,0.26953125,0.81005859375,1256.4116666316986,1256.4100000858307,1.6665458679199219,1.03759765625,-2.50244140625,-2.86865234375
1290.329999923706,-0.6630859375,0.26611328125,0.767578125,1256.4166667461395,1256.414999961853,1.6667842864990234,5.126953125,1.52587890625,-2.197265625
1290.3349997997284,-0.64208984375,0.2724609375,0.77587890625,1256.421666622162,1256.420000076294,1.6665458681472956,2.8076171875,-6.591796875,-2.0751953125
1290.3399999141693,-0.5546875,0.24755859375,0.8115234375,1256.4266667366028,1256.4249999523165,1.6667842862716498,1.708984375,-5.31005859375,-2.01416015625
1290.3449997901917,-0.6103515625,0.12841796875,0.70556640625,1256.4316666126251,1256.4300000667572,1.6665458679199219,4.69970703125,-2.9296875,-2.685546875
1290.3499999046326,-0.67138671875,0.16259765625,0.70166015625,1256.436666727066,1256.4349999427795,1.6667842864990234,0.30517578125,4.45556640625,-4.150390625
1290.354999780655,-0.74072265625,0.2509765625,0.78515625,1256.4416666030884,1256.4400000572205,1.6665458679199219,2.38037109375,22.8271484375,-4.150390625
1290.3599998950958,-0.76708984375,0.2255859375,0.82080078125,1256.4466667175293,1256.4450001716614,1.6665458679199219,3.72314453125,14.404296875,-3.47900390625
1290.3649997711182,-0.64794921875,0.23974609375,0.8662109375,1256.4516665935516,1256.4500000476835,1.6665458681472956,0.91552734375,-10.68115234375,-2.9296875
1290.369999885559,-0.6669921875,0.25732421875,0.8427734375,1256.4566667079926,1256.4550001621246,1.6665458679199219,3.41796875,-11.90185546875,-2.5634765625
1290.375,-0.51025390625,0.287109375,0.79736328125,1256.4616668224337,1256.460000038147,1.6667842867263971,2.74658203125,-10.31494140625,-3.5400390625
1290.3799998760223,-0.60205078125,0.28466796875,0.72509765625,1256.4666666984558,1256.465000152588,1.6665458679199219,3.11279296875,0.6103515625,-3.72314453125
1290.3849999904633,-0.68798828125,0.19580078125,0.6748046875,1256.4716668128967,1256.4700000286102,1.6667842864990234,2.99072265625,2.38037109375,-4.638671875
1290.3899998664856,-0.689453125,0.1689453125,0.75830078125,1256.476666688919,1256.4750001430511,1.6665458679199219,-0.06103515625,12.939453125,-6.9580078125
1290.3949999809265,-0.7158203125,0.15771484375,0.84716796875,1256.48166680336,1256.4800000190735,1.6667842864990234,2.44140625,20.69091796875,-7.4462890625
1290.3999998569489,-0.72998046875,0.248046875,0.87890625,1256.4866666793823,1256.4850001335144,1.6665458679199219,1.5869140625,-4.45556640625,-6.4697265625
1290.4049999713898,-0.71484375,0.2822265625,0.81787109375,1256.4916667938232,1256.4900000095367,1.6667842864990234,3.72314453125,-10.8642578125,-5.7373046875
1290.409999847412,-0.6220703125,0.29736328125,0.78369140625,1256.4966666698456,1256.495000123978,1.6665458676925482,3.0517578125,-11.65771484375,-5.37109375
1290.414999961853,-0.5869140625,0.29833984375,0.779296875,1256.5016667842865,1256.5,1.6667842864990234,2.5634765625,-8.7890625,-4.69970703125
1290.4199998378754,-0.5869140625,0.1826171875,0.7109375,1256.5066666603088,1256.505000114441,1.6665458679199219,3.23486328125,-8.1787109375,-5.126953125
1290.4249999523165,-0.60009765625,0.1484375,0.65234375,1256.51166677475,1256.5099999904637,1.6667842862716498,1.77001953125,-5.31005859375,-6.53076171875
1290.4299998283386,-0.67431640625,0.2236328125,0.7275390625,1256.516666650772,1256.5150001049042,1.6665458679199219,0.3662109375,19.6533203125,-7.38525390625
1290.4349999427795,-0.771484375,0.2041015625,0.78955078125,1256.521666765213,1256.5199999809265,1.6667842864990234,3.35693359375,25.634765625,-6.9580078125
1290.439999818802,-0.71044921875,0.18115234375,0.8564453125,1256.5266666412356,1256.5250000953674,1.6665458681472956,0.67138671875,-0.1220703125,-6.4697265625
1290.4449999332428,-0.60498046875,0.23388671875,0.87646484375,1256.5316667556765,1256.5299999713898,1.6667842867263971,1.46484375,-16.05224609375,-5.79833984375
1290.4499998092651,-0.578125,0.2880859375,0.767578125,1256.5366666316986,1256.5350000858307,1.6665458679199219,4.39453125,-10.7421875,-5.859375
1290.454999923706,-0.52783203125,0.3134765625,0.73681640625,1256.5416667461395,1256.539999961853,1.6667842864990234,1.5869140625,-8.60595703125,-5.55419921875
1290.4599997997284,-0.609375,0.19677734375,0.65185546875,1256.546666622162,1256.545000076294,1.6665458681472956,3.90625,-1.708984375,-5.37109375
1290.4649999141693,-0.6865234375,0.15234375,0.662109375,1256.5516667366028,1256.5499999523165,1.6667842862716498,0.1220703125,5.79833984375,-7.38525390625
1290.4699997901917,-0.69921875,0.18896484375,0.755859375,1256.5566666126251,1256.5550000667572,1.6665458679199219,1.15966796875,19.1650390625,-7.6904296875
1290.4749999046326,-0.6748046875,0.20556640625,0.8486328125,1256.561666727066,1256.5599999427795,1.6667842864990234,1.52587890625,6.34765625,-6.9580078125
1290.479999780655,-0.65673828125,0.27587890625,0.85888671875,1256.5666666030884,1256.5650000572205,1.6665458679199219,1.708984375,-11.41357421875,-5.859375
1290.4849998950958,-0.587890625,0.26513671875,0.77783203125,1256.5716667175293,1256.5700001716614,1.6665458679199219,4.39453125,-15.0146484375,-5.2490234375
1290.4899997711182,-0.5576171875,0.24169921875,0.72900390625,1256.5766665935516,1256.5750000476835,1.6665458681472956,1.953125,-13.671875,-5.06591796875
1290.494999885559,-0.548828125,0.1767578125,0.693359375,1256.5816667079926,1256.5800001621246,1.6665458679199219,2.38037109375,-6.34765625,-5.7373046875
1290.5,-0.59814453125,0.13671875,0.619140625,1256.5866668224337,1256.585000038147,1.6667842867263971,2.86865234375,-1.40380859375,-6.89697265625
1290.5049998760223,-0.591796875,0.19140625,0.63232421875,1256.5916666984558,1256.590000152588,1.6665458679199219,0.6103515625,6.16455078125,-7.9345703125
1290.5099999904633,-0.6572265625,0.1845703125,0.6796875,1256.5966668128967,1256.5950000286102,1.6667842864990234,2.3193359375,14.5263671875,-7.4462890625
1290.5149998664856,-0.67724609375,0.1689453125,0.73828125,1256.601666688919,1256.6000001430511,1.6665458679199219,1.46484375,6.9580078125,-7.080078125
1290.5199999809265,-0.603515625,0.20361328125,0.76806640625,1256.60666680336,1256.6050000190735,1.6667842864990234,1.52587890625,-6.7138671875,-6.40869140625
1290.5249998569489,-0.572265625,0.24169921875,0.7275390625,1256.6116666793823,1256.6100001335144,1.6665458679199219,3.11279296875,-7.50732421875,-5.06591796875
1290.5299999713898,-0.52880859375,0.22998046875,0.744140625,1256.6166667938232,1256.6150000095367,1.6667842864990234,1.5869140625,-4.57763671875,-4.21142578125
1290.534999847412,-0.55029296875,0.16162109375,0.6748046875,1256.6216666698456,1256.620000123978,1.6665458676925482,4.45556640625,2.3193359375,-4.08935546875
1290.539999961853,-0.65087890625,0.15380859375,0.64306640625,1256.6266667842865,1256.625,1.6667842864990234,1.28173828125,0.54931640625,-4.39453125
1290.5449998378754,-0.65966796875,0.18212890625,0.68212890625,1256.6316666603088,1256.630000114441,1.6665458679199219,1.77001953125,7.14111328125,-4.39453125
1290.5499999523165,-0.6923828125,0.15283203125,0.72216796875,1256.63666677475,1256.6349999904637,1.6667842862716498,2.25830078125,10.68115234375,-3.5400390625
1290.5549998283386,-0.6572265625,0.17919921875,0.7578125,1256.641666650772,1256.6400001049042,1.6665458679199219,1.5869140625,-1.3427734375,-2.50244140625
1290.5599999427795,-0.63720703125,0.2529296875,0.79345703125,1256.646666765213,1256.6449999809265,1.6667842864990234,1.64794921875,-3.2958984375,-2.0751953125
1290.564999818802,-0.57373046875,0.27587890625,0.7470703125,1256.6516666412356,1256.6500000953674,1.6665458681472956,4.57763671875,-2.3193359375,-0.732421875
1290.5699999332428,-0.56640625,0.2724609375,0.7529296875,1256.6566667556765,1256.6549999713898,1.6667842867263971,1.8310546875,-4.21142578125,0.06103515625
1290.5749998092651,-0.64501953125,0.13818359375,0.66943359375,1256.6616666316986,1256.6600000858307,1.6665458679199219,3.96728515625,-3.5400390625,0.0
1290.579999923706,-0.6259765625,0.1533203125,0.67626953125,1256.6666667461395,1256.664999961853,1.6667842864990234,1.220703125,-0.06103515625,-0.8544921875
1290.5849997997284,-0.6376953125,0.19921875,0.72021484375,1256.671666622162,1256.670000076294,1.6665458681472956,2.8076171875,13.48876953125,-0.30517578125
1290.5899999141693,-0.72119140625,0.1904296875,0.70654296875,1256.6766667366028,1256.6749999523165,1.6667842862716498,3.96728515625,12.02392578125,0.1220703125
1290.5949997901917,-0.61376953125,0.23095703125,0.76708984375,1256.6816666126251,1256.6800000667572,1.6665458679199219,1.0986328125,-4.638671875,0.732421875
1290.5999999046326,-0.62109375,0.23388671875,0.7548828125,1256.686666727066,1256.6849999427795,1.6667842864990234,4.45556640625,-0.54931640625,1.77001953125
1290.604999780655,-0.609375,0.2119140625,0.7529296875,1256.6916666030884,1256.6900000572205,1.6665458679199219,2.5634765625,-4.638671875,1.52587890625
1290.6099998950958,-0.54931640625,0.2431640625,0.759765625,1256.6966667175293,1256.6950001716614,1.6665458679199219,2.685546875,-2.38037109375,1.15966796875
1290.6149997711182,-0.6220703125,0.17529296875,0.669921875,1256.7016665935516,1256.7000000476835,1.6665458681472956,4.39453125,0.0,1.28173828125
1290.619999885559,-0.64990234375,0.15576171875,0.67529296875,1256.7066667079926,1256.7050001621246,1.6665458679199219,0.91552734375,2.62451171875,1.03759765625
1290.625,-0.6953125,0.1435546875,0.74853515625,1256.7116668224337,1256.710000038147,1.6667842867263971,1.8310546875,11.04736328125,1.220703125
1290.6299998760223,-0.642578125,0.13818359375,0.7880859375,1256.7166666984558,1256.715000152588,1.6665458679199219,3.2958984375,12.3291015625,1.40380859375
1290.6349999904633,-0.68505859375,0.2490234375,0.8291015625,1256.7216668128967,1256.7200000286102,1.6667842864990234,1.46484375,1.89208984375,1.220703125
1290.6399998664856,-0.7041015625,0.31884765625,0.7685546875,1256.726666688919,1256.7250001430511,1.6665458679199219,5.55419921875,1.28173828125,1.5869140625
1290.6449999809265,-0.59033203125,0.3271484375,0.79150390625,1256.73166680336,1256.7300000190735,1.6667842864990234,2.62451171875,-11.04736328125,2.25830078125
1290.6499998569489,-0.58642578125,0.1826171875,0.6962890625,1256.7366666793823,1256.7350001335144,1.6665458679199219,4.150390625,-10.6201171875,1.708984375
1290.6549999713898,-0.6669921875,0.14208984375,0.6123046875,1256.7416667938232,1256.7400000095367,1.6667842864990234,1.89208984375,-3.35693359375,-0.30517578125
1290.659999847412,-0.60986328125,0.21875,0.681640625,1256.7466666698456,1256.745000123978,1.6665458676925482,0.18310546875,9.765625,-0.67138671875
1290.664999961853,-0.7294921875,0.208984375,0.7548828125,1256.7516667842865,1256.75,1.6667842864990234,3.5400390625,26.3671875,0.30517578125
1290.6699998378754,-0.7412109375,0.1669921875,0.806640625,1256.7566666603088,1256.755000114441,1.6665458679199219,2.0751953125,8.48388671875,0.9765625
1290.6749999523165,-0.59716796875,0.2421875,0.83251953125,1256.76166677475,1256.7599999904637,1.6667842862716498,2.9296875,-12.26806640625,1.52587890625
1290.6799998283386,-0.587890625,0.2451171875,0.7578125,1256.766666650772,1256.7650001049042,1.6665458679199219,4.39453125,-8.30078125,1.46484375
1290.6849999427795,-0.63427734375,0.27978515625,0.71240234375,1256.771666765213,1256.7699999809265,1.6667842864990234,2.3193359375,-2.50244140625,0.9765625
1290.689999818802,-0.62109375,0.25927734375,0.69677734375,1256.7766666412356,1256.7750000953674,1.6665458681472956,3.72314453125,2.685546875,1.0986328125
1290.6949999332428,-0.72900390625,0.20458984375,0.6923828125,1256.7816667556765,1256.7799999713898,1.6667842867263971,1.953125,7.9345703125,0.732421875
1290.6999998092651,-0.7109375,0.1845703125,0.748046875,1256.7866666316986,1256.7850000858307,1.6665458679199219,1.52587890625,9.58251953125,0.79345703125
1290.704999923706,-0.6875,0.1875,0.82373046875,1256.7916667461395,1256.789999961853,1.6667842864990234,1.77001953125,8.9111328125,0.8544921875
1290.7099997997284,-0.63427734375,0.24072265625,0.8525390625,1256.796666622162,1256.795000076294,1.6665458681472956,2.50244140625,-1.03759765625,1.03759765625
1290.7149999141693,-0.6943359375,0.28369140625,0.78369140625,1256.8016667366028,1256.7999999523165,1.6667842862716498,2.99072265625,-7.14111328125,0.732421875
1290.7199997901917,-0.62158203125,0.29638671875,0.74951171875,1256.8066666126251,1256.8050000667572,1.6665458679199219,3.2958984375,-11.71875,0.91552734375
1290.7249999046326,-0.568359375,0.2021484375,0.75341796875,1256.811666727066,1256.8099999427795,1.6667842864990234,2.685546875,2.3193359375,1.03759765625
1290.729999780655,-0.71044921875,0.14794921875,0.67724609375,1256.8166666030884,1256.8150000572205,1.6665458679199219,2.685546875,3.90625,0.1220703125
1290.7349998950958,-0.673828125,0.2099609375,0.71728515625,1256.8216667175293,1256.8200001716614,1.6665458679199219,0.48828125,5.79833984375,-0.54931640625
1290.7399997711182,-0.68994140625,0.27734375,0.7783203125,1256.8266665935516,1256.8250000476835,1.6665458681472956,2.3193359375,12.0849609375,0.18310546875
1290.744999885559,-0.73974609375,0.21533203125,0.771484375,1256.8316667079926,1256.8300001621246,1.6665458679199219,2.685546875,1.8310546875,0.79345703125
1290.75,-0.609375,0.22900390625,0.8115234375,1256.8366668224337,1256.835000038147,1.6667842867263971,1.52587890625,-8.23974609375,0.67138671875
1290.7549998760223,-0.55908203125,0.2412109375,0.80029296875,1256.8416666984558,1256.840000152588,1.6665458679199219,3.2958984375,-0.6103515625,0.732421875
1290.7599999904633,-0.61669921875,0.26220703125,0.8046875,1256.8466668128967,1256.8450000286102,1.6667842864990234,1.28173828125,2.197265625,0.54931640625
1290.7649998664856,-0.69384765625,0.22412109375,0.72607421875,1256.851666688919,1256.8500001430511,1.6665458679199219,4.08935546875,2.86865234375,0.0
1290.7699999809265,-0.685546875,0.21875,0.7109375,1256.85666680336,1256.8550000190735,1.6667842864990234,2.0751953125,-4.0283203125,0.0
1290.7749998569489,-0.69970703125,0.244140625,0.72900390625,1256.8616666793823,1256.8600001335144,1.6665458679199219,0.6103515625,1.77001953125,-0.48828125
1290.7799999713898,-0.70654296875,0.16748046875,0.7275390625,1256.8666667938232,1256.8650000095367,1.6667842864990234,2.86865234375,4.82177734375,-0.06103515625
1290.784999847412,-0.6220703125,0.17138671875,0.771484375,1256.8716666698456,1256.870000123978,1.6665458676925482,0.6103515625,-2.62451171875,0.0
1290.789999961853,-0.626953125,0.28271484375,0.806640625,1256.8766667842865,1256.875,1.6667842864990234,1.46484375,1.15966796875,0.06103515625
1290.7949998378754,-0.67626953125,0.29443359375,0.77587890625,1256.8816666603088,1256.880000114441,1.6665458679199219,3.90625,4.08935546875,0.54931640625
1290.7999999523165,-0.59130859375,0.22607421875,0.798828125,1256.88666677475,1256.8849999904637,1.6667842862716498,1.64794921875,-6.591796875,0.6103515625
1290.8049998283386,-0.65576171875,0.1796875,0.74169921875,1256.891666650772,1256.8900001049042,1.6665458679199219,2.50244140625,-8.544921875,0.18310546875
1290.8099999427795,-0.63818359375,0.17431640625,0.69921875,1256.896666765213,1256.8949999809265,1.6667842864990234,1.15966796875,-4.39453125,-0.9765625
1290.814999818802,-0.66552734375,0.22265625,0.70654296875,1256.9016666412356,1256.9000000953674,1.6665458681472956,1.46484375,10.68115234375,-0.8544921875
1290.8199999332428,-0.7080078125,0.22412109375,0.7451171875,1256.9066667556765,1256.9049999713898,1.6667842867263971,2.0751953125,11.962890625,0.0
1290.8249998092651,-0.6591796875,0.24462890625,0.80712890625,1256.9116666316986,1256.9100000858307,1.6665458679199219,1.77001953125,-7.080078125,0.54931640625
1290.829999923706,-0.625,0.2626953125,0.7763671875,1256.9166667461395,1256.914999961853,1.6667842864990234,2.44140625,-6.16455078125,0.30517578125
1290.8349997997284,-0.533203125,0.28466796875,0.80029296875,1256.921666622162,1256.920000076294,1.6665458681472956,1.77001953125,-5.92041015625,0.42724609375
1290.8399999141693,-0.5830078125,0.2548828125,0.77978515625,1256.9266667366028,1256.9249999523165,1.6667842862716498,1.953125,-0.6103515625,0.42724609375
1290.8449997901917,-0.61279296875,0.1513671875,0.6923828125,1256.9316666126251,1256.9300000667572,1.6665458679199219,3.173828125,-1.89208984375,0.244140625
1290.8499999046326,-0.7060546875,0.1552734375,0.6943359375,1256.936666727066,1256.9349999427795,1.6667842864990234,-0.3662109375,5.2490234375,-0.54931640625
1290.854999780655,-0.71923828125,0.197265625,0.76220703125,1256.9416666030884,1256.9400000572205,1.6665458679199219,1.953125,12.75634765625,-0.30517578125
1290.8599998950958,-0.67822265625,0.20947265625,0.78759765625,1256.9466667175293,1256.9450001716614,1.6665458679199219,1.77001953125,1.3427734375,0.18310546875
1290.8649997711182,-0.6064453125,0.27685546875,0.80419921875,1256.9516665935516,1256.9500000476835,1.6665458681472956,0.8544921875,-7.9345703125,0.1220703125
1290.869999885559,-0.65283203125,0.310546875,0.7431640625,1256.9566667079926,1256.9550001621246,1.6665458679199219,3.2958984375,-2.38037109375,0.42724609375
1290.875,-0.57177734375,0.2333984375,0.79052734375,1256.9616668224337,1256.960000038147,1.6667842867263971,1.8310546875,-4.94384765625,1.03759765625
1290.8799998760223,-0.6533203125,0.14501953125,0.68017578125,1256.9666666984558,1256.965000152588,1.6665458679199219,3.173828125,-6.8359375,0.30517578125
1290.8849999904633,-0.6298828125,0.18505859375,0.6591796875,1256.9716668128967,1256.9700000286102,1.6667842864990234,-0.244140625,-9.033203125,-1.03759765625
1290.8899998664856,-0.6201171875,0.232421875,0.71337890625,1256.976666688919,1256.9750001430511,1.6665458679199219,1.0986328125,14.83154296875,-0.48828125
1290.8949999809265,-0.6943359375,0.16064453125,0.73779296875,1256.98166680336,1256.9800000190735,1.6667842864990234,2.44140625,16.6015625,0.48828125
1290.8999998569489,-0.64404296875,0.2412109375,0.8232421875,1256.9866666793823,1256.9850001335144,1.6665458679199219,0.48828125,-9.70458984375,0.18310546875
1290.9049999713898,-0.63232421875,0.26513671875,0.74658203125,1256.9916667938232,1256.9900000095367,1.6667842864990234,3.84521484375,-6.4697265625,0.244140625
1290.909999847412,-0.52099609375,0.30029296875,0.73828125,1256.9966666698456,1256.995000123978,1.6665458676925482,1.0986328125,-8.544921875,0.244140625
1290.914999961853,-0.5751953125,0.29931640625,0.7021484375,1257.0016667842865,1257.0,1.6667842864990234,2.3193359375,-3.90625,0.79345703125
1290.9199998378754,-0.59326171875,0.17333984375,0.63330078125,1257.0066666603088,1257.005000114441,1.6665458679199219,2.99072265625,-2.50244140625,0.732421875
1290.9249999523165,-0.62158203125,0.1669921875,0.64453125,1257.01166677475,1257.0099999904637,1.6667842862716498,-0.6103515625,2.25830078125,-0.1220703125
1290.9299998283386,-0.703125,0.15673828125,0.6982421875,1257.016666650772,1257.0150001049042,1.6665458679199219,1.46484375,15.5029296875,0.06103515625
1290.9349999427795,-0.68798828125,0.18310546875,0.79296875,1257.021666765213,1257.0199999809265,1.6667842864990234,0.67138671875,12.6953125,0.0
1290.939999818802,-0.62109375,0.259765625,0.8291015625,1257.0266666412356,1257.0250000953674,1.6665458681472956,1.52587890625,-2.13623046875,0.06103515625
1290.9449999332428,-0.6416015625,0.30517578125,0.763671875,1257.0316667556765,1257.0299999713898,1.6667842867263971,2.685546875,-7.87353515625,0.244140625
1290.9499998092651,-0.54052734375,0.29541015625,0.77001953125,1257.0366666316986,1257.0350000858307,1.6665458679199219,1.46484375,-8.544921875,0.91552734375
1290.954999923706,-0.58935546875,0.1748046875,0.6953125,1257.0416667461395,1257.039999961853,1.6667842864990234,2.197265625,-4.45556640625,0.91552734375
1290.9599997997284,-0.6845703125,0.15673828125,0.626953125,1257.046666622162,1257.045000076294,1.6665458681472956,0.79345703125,-1.89208984375,-0.6103515625
1290.9649999141693,-0.66064453125,0.26416015625,0.71484375,1257.0516667366028,1257.0499999523165,1.6667842862716498,-0.30517578125,10.55908203125,-1.0986328125
1290.9699997901917,-0.701171875,0.2490234375,0.79248046875,1257.0566666126251,1257.0550000667572,1.6665458679199219,2.197265625,24.47509765625,0.06103515625
1290.9749999046326,-0.70849609375,0.212890625,0.83056640625,1257.061666727066,1257.0599999427795,1.6667842864990234,0.732421875,5.06591796875,0.6103515625
1290.979999780655,-0.67626953125,0.24169921875,0.8798828125,1257.0666666030884,1257.0650000572205,1.6665458679199219,-0.30517578125,-11.962890625,0.42724609375
1290.9849998950958,-0.60693359375,0.26123046875,0.83984375,1257.0716667175293,1257.0700001716614,1.6665458679199219,3.2958984375,-6.7138671875,-0.18310546875
1290.9899997711182,-0.64697265625,0.30908203125,0.77294921875,1257.0766665935516,1257.0750000476835,1.6665458681472956,2.01416015625,-5.37109375,-0.06103515625
1290.994999885559,-0.658203125,0.27001953125,0.72412109375,1257.0816667079926,1257.0800001621246,1.6665458679199219,1.5869140625,-2.197265625,0.18310546875
1291.0,-0.6767578125,0.1787109375,0.69921875,1257.0866668224337,1257.085000038147,1.6667842867263971,0.244140625,3.60107421875,-0.30517578125
1291.0049998760223,-0.69287109375,0.22412109375,0.744140625,1257.0916666984558,1257.090000152588,1.6665458679199219,0.06103515625,6.9580078125,-0.42724609375
1291.0099999904633,-0.75048828125,0.232421875,0.775390625,1257.0966668128967,1257.0950000286102,1.6667842864990234,0.79345703125,10.6201171875,-0.06103515625
1291.0149998664856,-0.67041015625,0.25146484375,0.8505859375,1257.101666688919,1257.1000001430511,1.6665458679199219,0.1220703125,-2.8076171875,0.244140625
1291.0199999809265,-0.69970703125,0.26513671875,0.83935546875,1257.10666680336,1257.1050000190735,1.6667842864990234,0.67138671875,0.54931640625,0.1220703125
1291.0249998569489,-0.6650390625,0.28857421875,0.8505859375,1257.1116666793823,1257.1100001335144,1.6665458679199219,0.79345703125,-0.9765625,0.42724609375
1291.0299999713898,-0.60302734375,0.224609375,0.82275390625,1257.1166667938232,1257.1150000095367,1.6667842864990234,1.8310546875,-5.67626953125,0.79345703125
1291.034999847412,-0.6943359375,0.18212890625,0.728515625,1257.1216666698456,1257.120000123978,1.6665458676925482,0.79345703125,-6.65283203125,-0.1220703125
1291.039999961853,-0.72021484375,0.212890625,0.71630859375,1257.1266667842865,1257.125,1.6667842864990234,0.06103515625,1.8310546875,-1.0986328125
1291.0449998378754,-0.7470703125,0.24365234375,0.748046875,1257.1316666603088,1257.130000114441,1.6665458679199219,0.91552734375,11.3525390625,-0.54931640625
1291.0499999523165,-0.68408203125,0.26171875,0.82421875,1257.13666677475,1257.1349999904637,1.6667842862716498,0.30517578125,7.8125,0.244140625
1291.0549998283386,-0.70556640625,0.27734375,0.8505859375,1257.141666650772,1257.1400001049042,1.6665458679199219,0.54931640625,-2.5634765625,0.30517578125
1291.0599999427795,-0.65869140625,0.27294921875,0.8203125,1257.146666765213,1257.1449999809265,1.6667842864990234,1.89208984375,-7.14111328125,0.06103515625
1291.064999818802,-0.556640625,0.28564453125,0.83447265625,1257.1516666412356,1257.1500000953674,1.6665458681472956,0.1220703125,-12.3291015625,0.30517578125
1291.0699999332428,-0.60986328125,0.23095703125,0.775390625,1257.1566667556765,1257.1549999713898,1.6667842867263971,1.5869140625,-3.96728515625,0.06103515625
1291.0749998092651,-0.68603515625,0.16748046875,0.67919921875,1257.1616666316986,1257.1600000858307,1.6665458679199219,-0.1220703125,-1.64794921875,-0.67138671875
1291.079999923706,-0.65869140625,0.2021484375,0.72265625,1257.1666667461395,1257.164999961853,1.6667842864990234,0.0,9.21630859375,-0.42724609375
1291.0849997997284,-0.7255859375,0.19189453125,0.7744140625,1257.171666622162,1257.170000076294,1.6665458681472956,0.732421875,15.625,-0.1220703125
1291.0899999141693,-0.65673828125,0.2294921875,0.83203125,1257.1766667366028,1257.1749999523165,1.6667842862716498,0.0,-1.28173828125,-0.18310546875
1291.0949997901917,-0.6845703125,0.298828125,0.8056640625,1257.1816666126251,1257.1800000667572,1.6665458679199219,0.8544921875,-6.28662109375,0.0
1291.0999999046326,-0.65087890625,0.33056640625,0.76025390625,1257.186666727066,1257.1849999427795,1.6667842864990234,0.6103515625,-8.7890625,0.1220703125
1291.104999780655,-0.55810546875,0.25439453125,0.7744140625,1257.1916666030884,1257.1900000572205,1.6665458679199219,0.79345703125,-6.2255859375,0.42724609375
1291.1099998950958,-0.61181640625,0.12060546875,0.69580078125,1257.1966667175293,1257.1950001716614,1.6665458679199219,1.28173828125,-2.74658203125,0.06103515625
1291.1149997711182,-0.65283203125,0.15380859375,0.6806640625,1257.2016665935516,1257.2000000476835,1.6665458681472956,-0.67138671875,-0.244140625,-1.03759765625
1291.119999885559,-0.74658203125,0.236328125,0.7255859375,1257.2066667079926,1257.2050001621246,1.6665458679199219,0.1220703125,16.7236328125,-0.9765625
1291.125,-0.72705078125,0.2353515625,0.76416015625,1257.2116668224337,1257.210000038147,1.6667842867263971,1.8310546875,12.02392578125,-0.06103515625
1291.1299998760223,-0.70361328125,0.23828125,0.8076171875,1257.2166666984558,1257.215000152588,1.6665458679199219,-0.67138671875,-4.2724609375,0.3662109375
1291.1349999904633,-0.62353515625,0.25830078125,0.80712890625,1257.2216668128967,1257.2200000286102,1.6667842864990234,0.54931640625,-13.5498046875,0.06103515625
1291.1399998664856,-0.55712890625,0.23974609375,0.7578125,1257.226666688919,1257.2250001430511,1.6665458679199219,1.64794921875,-10.009765625,0.1220703125
1291.1449999809265,-0.5537109375,0.26123046875,0.75634765625,1257.23166680336,1257.2300000190735,1.6667842864990234,-0.244140625,-0.1220703125,-0.3662109375
1291.1499998569489,-0.7158203125,0.19482421875,0.6875,1257.2366666793823,1257.2350001335144,1.6665458679199219,1.64794921875,6.40869140625,-0.48828125
1291.1549999713898,-0.68359375,0.21533203125,0.74072265625,1257.2416667938232,1257.2400000095367,1.6667842864990234,-1.46484375,2.5634765625,-0.9765625
1291.159999847412,-0.7236328125,0.20947265625,0.77001953125,1257.2466666698456,1257.245000123978,1.6665458676925482,-0.48828125,5.7373046875,-0.48828125
1291.164999961853,-0.67919921875,0.1611328125,0.76220703125,1257.2516667842865,1257.25,1.6667842864990234,0.9765625,-2.86865234375,-0.42724609375
1291.1699998378754,-0.57373046875,0.22509765625,0.7900390625,1257.2566666603088,1257.255000114441,1.6665458679199219,-1.64794921875,-10.986328125,-0.9765625
1291.1749999523165,-0.64501953125,0.318359375,0.6953125,1257.26166677475,1257.2599999904637,1.6667842862716498,2.38037109375,0.48828125,-0.48828125
1291.1799998283386,-0.59033203125,0.3046875,0.74951171875,1257.266666650772,1257.2650001049042,1.6665458679199219,-0.79345703125,-1.3427734375,0.06103515625
1291.1849999427795,-0.5888671875,0.18212890625,0.740234375,1257.271666765213,1257.2699999809265,1.6667842864990234,0.79345703125,-5.9814453125,0.0
1291.189999818802,-0.61865234375,0.14208984375,0.64306640625,1257.2766666412356,1257.2750000953674,1.6665458681472956,0.6103515625,-3.173828125,-1.52587890625
1291.1949999332428,-0.64013671875,0.244140625,0.673828125,1257.2816667556765,1257.2799999713898,1.6667842867263971,-1.708984375,-0.6103515625,-2.197265625
1291.1999998092651,-0.64501953125,0.2529296875,0.71435546875,1257.2866666316986,1257.2850000858307,1.6665458679199219,1.03759765625,14.58740234375,-0.79345703125
1291.204999923706,-0.67919921875,0.19287109375,0.7724609375,1257.2916667461395,1257.289999961853,1.6667842864990234,-0.6103515625,7.87353515625,0.18310546875
1291.2099997997284,-0.63671875,0.20849609375,0.81689453125,1257.296666622162,1257.295000076294,1.6665458681472956,-0.6103515625,-8.30078125,-0.30517578125
1291.2149999141693,-0.62548828125,0.275390625,0.77197265625,1257.3016667366028,1257.2999999523165,1.6667842862716498,1.5869140625,-6.103515625,-1.0986328125
1291.2199997901917,-0.53662109375,0.33203125,0.75634765625,1257.3066666126251,1257.3050000667572,1.6665458679199219,0.732421875,-6.34765625,-0.8544921875
1291.2249999046326,-0.64208984375,0.2099609375,0.6630859375,1257.311666727066,1257.3099999427795,1.6667842864990234,1.03759765625,-1.77001953125,-0.1220703125
1291.229999780655,-0.70263671875,0.1787109375,0.66259765625,1257.3166666030884,1257.3150000572205,1.6665458679199219,-1.220703125,4.0283203125,-1.15966796875
1291.2349998950958,-0.67236328125,0.201171875,0.69873046875,1257.3216667175293,1257.3200001716614,1.6665458679199219,-0.6103515625,7.87353515625,-0.91552734375
1291.2399997711182,-0.74072265625,0.19677734375,0.744140625,1257.3266665935516,1257.3250000476835,1.6665458681472956,0.0,12.75634765625,-0.67138671875
1291.244999885559,-0.6435546875,0.24609375,0.80810546875,1257.3316667079926,1257.3300001621246,1.6665458679199219,-0.54931640625,-2.8076171875,-0.54931640625
1291.25,-0.59375,0.3017578125,0.77734375,1257.3366668224337,1257.335000038147,1.6667842867263971,1.220703125,-4.94384765625,-0.732421875
1291.2549998760223,-0.63037109375,0.30224609375,0.7724609375,1257.3416666984558,1257.340000152588,1.6665458679199219,-0.244140625,-0.8544921875,-0.3662109375
1291.2599999904633,-0.64599609375,0.21630859375,0.78564453125,1257.3466668128967,1257.3450000286102,1.6667842864990234,0.06103515625,2.9296875,-0.244140625
1291.2649998664856,-0.67626953125,0.15673828125,0.72607421875,1257.351666688919,1257.3500001430511,1.6665458679199219,0.30517578125,-1.708984375,-1.15966796875
1291.2699999809265,-0.7236328125,0.21044921875,0.70458984375,1257.35666680336,1257.3550000190735,1.6667842864990234,-0.79345703125,-2.3193359375,-1.89208984375
1291.2749998569489,-0.7080078125,0.2841796875,0.74365234375,1257.3616666793823,1257.3600001335144,1.6665458679199219,-0.732421875,6.34765625,-1.5869140625
1291.2799999713898,-0.69873046875,0.232421875,0.765625,1257.3666667938232,1257.3650000095367,1.6667842864990234,0.54931640625,9.521484375,-0.18310546875
1291.284999847412,-0.6806640625,0.21142578125,0.82275390625,1257.3716666698456,1257.370000123978,1.6665458676925482,-1.52587890625,-1.64794921875,-0.06103515625
1291.289999961853,-0.69580078125,0.26904296875,0.83642578125,1257.3766667842865,1257.375,1.6667842864990234,0.1220703125,-1.03759765625,-0.732421875
1291.2949998378754,-0.62158203125,0.33837890625,0.84619140625,1257.3816666603088,1257.380000114441,1.6665458679199219,0.67138671875,-4.21142578125,-0.79345703125
1291.2999999523165,-0.669921875,0.25634765625,0.79052734375,1257.38666677475,1257.3849999904637,1.6667842862716498,1.03759765625,-4.82177734375,-0.3662109375
1291.3049998283386,-0.68896484375,0.16796875,0.7080078125,1257.391666650772,1257.3900001049042,1.6665458679199219,0.1220703125,-10.1318359375,-1.15966796875
1291.3099999427795,-0.64794921875,0.22314453125,0.71337890625,1257.396666765213,1257.3949999809265,1.6667842864990234,-1.89208984375,2.685546875,-1.8310546875
1291.314999818802,-0.72314453125,0.24755859375,0.7587890625,1257.4016666412356,1257.4000000953674,1.6665458681472956,-0.54931640625,14.70947265625,-1.15966796875
1291.3199999332428,-0.75,0.19482421875,0.796875,1257.4066667556765,1257.4049999713898,1.6667842867263971,-0.732421875,7.2021484375,-0.6103515625
1291.3249998092651,-0.69921875,0.2294921875,0.8662109375,1257.4116666316986,1257.4100000858307,1.6665458679199219,-2.01416015625,-3.60107421875,-0.9765625
1291.329999923706,-0.66015625,0.30322265625,0.83642578125,1257.4166667461395,1257.414999961853,1.6667842864990234,1.77001953125,-1.03759765625,-1.15966796875
1291.3349997997284,-0.64404296875,0.32958984375,0.81884765625,1257.421666622162,1257.420000076294,1.6665458681472956,-0.67138671875,-4.94384765625,-0.30517578125
1291.3399999141693,-0.5859375,0.24853515625,0.79638671875,1257.4266667366028,1257.4249999523165,1.6667842862716498,-0.18310546875,-13.12255859375,0.1220703125
1291.3449997901917,-0.634765625,0.11962890625,0.693359375,1257.4316666126251,1257.4300000667572,1.6665458679199219,-0.1220703125,-11.3525390625,-0.732421875
1291.3499999046326,-0.70458984375,0.22998046875,0.72802734375,1257.436666727066,1257.4349999427795,1.6667842864990234,-1.5869140625,13.12255859375,-2.0751953125
1291.354999780655,-0.75634765625,0.23583984375,0.759765625,1257.4416666030884,1257.4400000572205,1.6665458679199219,1.0986328125,20.93505859375,-0.79345703125
1291.3599998950958,-0.69482421875,0.216796875,0.83642578125,1257.4466667175293,1257.4450001716614,1.6665458679199219,-1.708984375,-0.732421875,-0.244140625
1291.3649997711182,-0.65625,0.24560546875,0.84033203125,1257.4516665935516,1257.4500000476835,1.6665458681472956,-0.54931640625,-10.986328125,-0.3662109375
1291.369999885559,-0.62451171875,0.25341796875,0.7890625,1257.4566667079926,1257.4550001621246,1.6665458679199219,1.0986328125,-10.8642578125,-0.54931640625
1291.375,-0.55712890625,0.267578125,0.75,1257.4616668224337,1257.460000038147,1.6667842867263971,-0.9765625,-8.97216796875,-0.48828125
1291.3799998760223,-0.65478515625,0.18212890625,0.6650390625,1257.4666666984558,1257.465000152588,1.6665458679199219,0.9765625,0.06103515625,-0.79345703125
1291.3849999904633,-0.681640625,0.1611328125,0.66943359375,1257.4716668128967,1257.4700000286102,1.6667842864990234,-1.8310546875,4.5166015625,-1.52587890625
1291.3899998664856,-0.68310546875,0.18896484375,0.7666015625,1257.476666688919,1257.4750001430511,1.6665458679199219,-1.64794921875,15.93017578125,-0.91552734375
1291.3949999809265,-0.70751953125,0.1904296875,0.81103515625,1257.48166680336,1257.4800000190735,1.6667842864990234,0.06103515625,11.65771484375,-0.54931640625
1291.3999998569489,-0.68310546875,0.25,0.82958984375,1257.4866666793823,1257.4850001335144,1.6665458679199219,-1.64794921875,-10.80322265625,-1.0986328125
1291.4049999713898,-0.646484375,0.3173828125,0.7529296875,1257.4916667938232,1257.4900000095367,1.6667842864990234,0.79345703125,-12.5732421875,-1.40380859375
1291.409999847412,-0.65234375,0.3271484375,0.7021484375,1257.4966666698456,1257.495000123978,1.6665458676925482,0.1220703125,-8.544921875,-0.8544921875
1291.414999961853,-0.54736328125,0.28173828125,0.7314453125,1257.5016667842865,1257.5,1.6667842864990234,-1.0986328125,-7.8125,-0.18310546875
1291.4199998378754,-0.57275390625,0.1298828125,0.68798828125,1257.5066666603088,1257.505000114441,1.6665458679199219,0.1220703125,-2.197265625,-0.244140625
1291.4249999523165,-0.65283203125,0.181640625,0.68408203125,1257.51166677475,1257.5099999904637,1.6667842862716498,-2.62451171875,6.16455078125,-2.01416015625
1291.4299998283386,-0.71337890625,0.244140625,0.736328125,1257.516666650772,1257.5150001049042,1.6665458679199219,0.18310546875,18.12744140625,-1.28173828125
1291.4349999427795,-0.71630859375,0.205078125,0.77490234375,1257.521666765213,1257.5199999809265,1.6667842864990234,-0.30517578125,4.94384765625,-0.48828125
1291.439999818802,-0.56494140625,0.23583984375,0.818359375,1257.5266666412356,1257.5250000953674,1.6665458681472956,-1.8310546875,-16.2353515625,-0.48828125
1291.4449999332428,-0.61669921875,0.2724609375,0.76220703125,1257.5316667556765,1257.5299999713898,1.6667842867263971,0.06103515625,-13.00048828125,-1.3427734375
1291.4499998092651,-0.5615234375,0.33740234375,0.7353515625,1257.5366666316986,1257.5350000858307,1.6665458679199219,-1.0986328125,2.3193359375,-1.03759765625
1291.454999923706,-0.650390625,0.26513671875,0.7109375,1257.5416667461395,1257.539999961853,1.6667842864990234,0.48828125,6.103515625,-0.30517578125
1291.4599997997284,-0.74951171875,0.169921875,0.68603515625,1257.546666622162,1257.545000076294,1.6665458681472956,-0.79345703125,0.67138671875,-0.91552734375
1291.4649999141693,-0.671875,0.2021484375,0.74169921875,1257.5516667366028,1257.5499999523165,1.6667842862716498,-2.197265625,-0.6103515625,-1.5869140625
1291.4699997901917,-0.6630859375,0.1875,0.75732421875,1257.5566666126251,1257.5550000667572,1.6665458679199219,0.0,6.9580078125,-1.03759765625
1291.4749999046326,-0.640625,0.201171875,0.78857421875,1257.561666727066,1257.5599999427795,1.6667842864990234,-1.64794921875,-3.35693359375,-0.6103515625
1291.479999780655,-0.58251953125,0.2451171875,0.8251953125,1257.5666666030884,1257.5650000572205,1.6665458679199219,-1.220703125,-3.5400390625,-1.40380859375
1291.4849998950958,-0.63330078125,0.2939453125,0.78173828125,1257.5716667175293,1257.5700001716614,1.6665458679199219,1.3427734375,3.173828125,-1.03759765625
1291.4899997711182,-0.689453125,0.29052734375,0.7919921875,1257.5766665935516,1257.5750000476835,1.6665458681472956,-0.6103515625,6.2255859375,-0.54931640625
1291.494999885559,-0.6611328125,0.20654296875,0.8173828125,1257.5816667079926,1257.5800001621246,1.6665458679199219,-0.30517578125,-1.953125,-0.18310546875
1291.5,-0.66259765625,0.18359375,0.72314453125,1257.5866668224337,1257.585000038147,1.6667842867263971,-0.91552734375,-7.01904296875,-2.0751953125
1291.5049998760223,-0.708984375,0.291015625,0.7060546875,1257.5916666984558,1257.590000152588,1.6665458679199219,-1.40380859375,1.0986328125,-2.01416015625
1291.5099999904633,-0.7431640625,0.25439453125,0.74365234375,1257.5966668128967,1257.5950000286102,1.6667842864990234,-0.6103515625,11.77978515625,-1.03759765625
1291.5149998664856,-0.6923828125,0.21337890625,0.7998046875,1257.601666688919,1257.6000001430511,1.6665458679199219,-1.8310546875,2.5634765625,-0.67138671875
1291.5199999809265,-0.71875,0.23828125,0.85791015625,1257.60666680336,1257.6050000190735,1.6667842864990234,-1.5869140625,2.25830078125,-1.220703125
1291.5249998569489,-0.6201171875,0.32861328125,0.873046875,1257.6116666793823,1257.6100001335144,1.6665458679199219,-0.1220703125,-6.591796875,-1.3427734375
1291.5299999713898,-0.62646484375,0.2490234375,0.78662109375,1257.6166667938232,1257.6150000095367,1.6667842864990234,-0.1220703125,-10.1318359375,-0.8544921875
1291.534999847412,-0.66650390625,0.18701171875,0.69091796875,1257.6216666698456,1257.620000123978,1.6665458676925482,-0.79345703125,-15.07568359375,-1.220703125
1291.539999961853,-0.701171875,0.21142578125,0.677734375,1257.6266667842865,1257.625,1.6667842864990234,-2.0751953125,3.72314453125,-2.3193359375
1291.5449998378754,-0.7109375,0.2158203125,0.73828125,1257.6316666603088,1257.630000114441,1.6665458679199219,-1.0986328125,15.31982421875,-1.52587890625
1291.5499999523165,-0.67578125,0.193359375,0.7998046875,1257.63666677475,1257.6349999904637,1.6667842862716498,-1.220703125,7.2021484375,-1.03759765625
1291.5549998283386,-0.6474609375,0.26025390625,0.87841796875,1257.641666650772,1257.6400001049042,1.6665458679199219,-2.685546875,-4.638671875,-1.46484375
1291.5599999427795,-0.6396484375,0.31640625,0.833984375,1257.646666765213,1257.6449999809265,1.6667842864990234,0.79345703125,-1.03759765625,-1.64794921875
1291.564999818802,-0.654296875,0.318359375,0.7900390625,1257.6516666412356,1257.6500000953674,1.6665458681472956,-0.6103515625,-7.6904296875,-0.91552734375
1291.5699999332428,-0.6318359375,0.23291015625,0.791015625,1257.6566667556765,1257.6549999713898,1.6667842867263971,-1.5869140625,-7.14111328125,-0.244140625
1291.5749998092651,-0.66162109375,0.12744140625,0.6845703125,1257.6616666316986,1257.6600000858307,1.6665458679199219,-0.8544921875,-4.94384765625,-1.8310546875
1291.579999923706,-0.638671875,0.2314453125,0.71728515625,1257.6666667461395,1257.664999961853,1.6667842864990234,-2.3193359375,5.2490234375,-2.01416015625
1291.5849997997284,-0.73583984375,0.2412109375,0.71728515625,1257.671666622162,1257.670000076294,1.6665458681472956,0.18310546875,11.04736328125,-1.3427734375
1291.5899999141693,-0.6591796875,0.21240234375,0.75927734375,1257.6766667366028,1257.6749999523165,1.6667842862716498,-1.220703125,0.732421875,-0.732421875
1291.5949997901917,-0.63037109375,0.2470703125,0.8037109375,1257.6816666126251,1257.6800000667572,1.6665458679199219,-2.5634765625,-7.50732421875,-0.9765625
1291.5999999046326,-0.6181640625,0.25927734375,0.7822265625,1257.686666727066,1257.6849999427795,1.6667842864990234,0.18310546875,-2.38037109375,-0.8544921875
1291.604999780655,-0.57568359375,0.24951171875,0.814453125,1257.6916666030884,1257.6900000572205,1.6665458679199219,-1.708984375,-1.0986328125,-0.6103515625
1291.6099998950958,-0.65283203125,0.1826171875,0.72900390625,1257.6966667175293,1257.6950001716614,1.6665458679199219,1.15966796875,-0.18310546875,-0.732421875
1291.6149997711182,-0.72705078125,0.1904296875,0.69140625,1257.7016665935516,1257.7000000476835,1.6665458681472956,-2.25830078125,-1.28173828125,-1.64794921875
1291.619999885559,-0.7197265625,0.20556640625,0.73046875,1257.7066667079926,1257.7050001621246,1.6665458679199219,-1.46484375,2.74658203125,-1.40380859375
1291.625,-0.67333984375,0.16357421875,0.7626953125,1257.7116668224337,1257.710000038147,1.6667842867263971,-0.8544921875,3.47900390625,-1.0986328125
1291.6299998760223,-0.6806640625,0.2099609375,0.79296875,1257.7166666984558,1257.715000152588,1.6665458679199219,-2.13623046875,-1.03759765625,-1.40380859375
1291.6349999904633,-0.66796875,0.30517578125,0.78759765625,1257.7216668128967,1257.7200000286102,1.6667842864990234,-0.1220703125,0.1220703125,-1.40380859375
1291.6399998664856,-0.61962890625,0.3359375,0.78857421875,1257.726666688919,1257.7250001430511,1.6665458679199219,-0.06103515625,-1.03759765625,-0.79345703125
1291.6449999809265,-0.60791015625,0.27392578125,0.79443359375,1257.73166680336,1257.7300000190735,1.6667842864990234,-1.15966796875,-5.615234375,-0.06103515625
1291.6499998569489,-0.66552734375,0.1298828125,0.67041015625,1257.7366666793823,1257.7350001335144,1.6665458679199219,-0.54931640625,-10.92529296875,-1.64794921875
1291.6549999713898,-0.6259765625,0.1953125,0.65625,1257.7416667938232,1257.7400000095367,1.6667842864990234,-2.13623046875,-2.62451171875,-2.44140625
1291.659999847412,-0.7197265625,0.2138671875,0.68212890625,1257.7466666698456,1257.745000123978,1.6665458676925482,-1.52587890625,13.671875,-1.52587890625
1291.664999961853,-0.6982421875,0.16015625,0.7587890625,1257.7516667842865,1257.75,1.6667842864990234,-0.91552734375,12.6953125,-0.732421875
1291.6699998378754,-0.61181640625,0.17822265625,0.8466796875,1257.7566666603088,1257.755000114441,1.6665458679199219,-2.62451171875,-2.44140625,-0.8544921875
1291.6749999523165,-0.6474609375,0.27099609375,0.8134765625,1257.76166677475,1257.7599999904637,1.6667842862716498,-0.244140625,-5.06591796875,-1.5869140625
1291.6799998283386,-0.64501953125,0.3291015625,0.76123046875,1257.766666650772,1257.7650001049042,1.6665458679199219,0.0,-6.89697265625,-1.5869140625
1291.6849999427795,-0.5966796875,0.3232421875,0.7548828125,1257.771666765213,1257.7699999809265,1.6667842864990234,-1.3427734375,-6.103515625,-1.220703125
1291.689999818802,-0.62109375,0.21923828125,0.69580078125,1257.7766666412356,1257.7750000953674,1.6665458681472956,0.244140625,-2.5634765625,-1.15966796875
1291.6949999332428,-0.68603515625,0.173828125,0.67431640625,1257.7816667556765,1257.7799999713898,1.6667842867263971,-1.77001953125,-2.86865234375,-1.8310546875
1291.6999998092651,-0.68603515625,0.14013671875,0.7568359375,1257.7866666316986,1257.7850000858307,1.6665458679199219,-1.52587890625,14.70947265625,-1.40380859375
1291.704999923706,-0.708984375,0.15087890625,0.83984375,1257.7916667461395,1257.789999961853,1.6667842864990234,-1.8310546875,9.27734375,-1.28173828125
1291.7099997997284,-0.66943359375,0.24658203125,0.8623046875,1257.796666622162,1257.795000076294,1.6665458681472956,-1.15966796875,-6.591796875,-1.708984375
1291.7149999141693,-0.6376953125,0.33056640625,0.77392578125,1257.8016667366028,1257.7999999523165,1.6667842862716498,0.67138671875,-11.71875,-1.953125
1291.7199997901917,-0.5546875,0.34521484375,0.74951171875,1257.8066666126251,1257.8050000667572,1.6665458679199219,-1.28173828125,-11.16943359375,-1.0986328125
1291.7249999046326,-0.63525390625,0.154296875,0.6787109375,1257.811666727066,1257.8099999427795,1.6667842864990234,-0.30517578125,-2.13623046875,-1.15966796875
1291.729999780655,-0.68994140625,0.18408203125,0.66162109375,1257.8166666030884,1257.8150000572205,1.6665458679199219,-2.3193359375,1.5869140625,-2.9296875
1291.7349998950958,-0.7099609375,0.275390625,0.6923828125,1257.8216667175293,1257.8200001716614,1.6665458679199219,-2.25830078125,11.77978515625,-2.62451171875
1291.7399997711182,-0.7568359375,0.23779296875,0.76123046875,1257.8266665935516,1257.8250000476835,1.6665458681472956,-0.732421875,14.09912109375,-1.03759765625
1291.744999885559,-0.7001953125,0.1279296875,0.814453125,1257.8316667079926,1257.8300001621246,1.6665458679199219,-2.01416015625,1.77001953125,-0.54931640625
1291.75,-0.603515625,0.19970703125,0.84375,1257.8366668224337,1257.835000038147,1.6667842867263971,-2.0751953125,-15.2587890625,-1.15966796875
1291.7549998760223,-0.5888671875,0.30908203125,0.791015625,1257.8416666984558,1257.840000152588,1.6665458679199219,0.0,-7.62939453125,-1.708984375
1291.7599999904633,-0.6318359375,0.29541015625,0.7421875,1257.8466668128967,1257.8450000286102,1.6667842864990234,-0.732421875,-2.5634765625,-1.15966796875
1291.7649998664856,-0.63623046875,0.1923828125,0.70556640625,1257.851666688919,1257.8500001430511,1.6665458679199219,-0.48828125,0.30517578125,-1.0986328125
1291.7699999809265,-0.70361328125,0.18505859375,0.732421875,1257.85666680336,1257.8550000190735,1.6667842864990234,-2.197265625,0.91552734375,-1.5869140625
1291.7749998569489,-0.7080078125,0.22607421875,0.7421875,1257.8616666793823,1257.8600001335144,1.6665458679199219,-0.54931640625,5.4931640625,-2.13623046875
1291.7799999713898,-0.69921875,0.2158203125,0.74951171875,1257.8666667938232,1257.8650000095367,1.6667842864990234,-2.01416015625,-1.40380859375,-1.28173828125
1291.784999847412,-0.6435546875,0.24560546875,0.8232421875,1257.8716666698456,1257.870000123978,1.6665458676925482,-2.13623046875,-4.69970703125,-1.15966796875
1291.789999961853,-0.65185546875,0.27001953125,0.81689453125,1257.8766667842865,1257.875,1.6667842864990234,-0.1220703125,1.3427734375,-1.52587890625
1291.7949998378754,-0.62548828125,0.28076171875,0.79248046875,1257.8816666603088,1257.880000114441,1.6665458679199219,-0.48828125,-3.41796875,-1.220703125
1291.7999999523165,-0.63525390625,0.17919921875,0.759765625,1257.88666677475,1257.8849999904637,1.6667842862716498,-0.91552734375,-4.7607421875,-0.9765625
1291.8049998283386,-0.70751953125,0.1591796875,0.69482421875,1257.891666650772,1257.8900001049042,1.6665458679199219,-1.28173828125,-3.72314453125,-2.25830078125
1291.8099999427795,-0.67626953125,0.22216796875,0.70166015625,1257.896666765213,1257.8949999809265,1.6667842864990234,-2.50244140625,3.7841796875,-2.38037109375
1291.814999818802,-0.74267578125,0.2587890625,0.73046875,1257.9016666412356,1257.9000000953674,1.6665458681472956,-0.732421875,11.77978515625,-1.52587890625
1291.8199999332428,-0.68212890625,0.23388671875,0.78515625,1257.9066667556765,1257.9049999713898,1.6667842867263971,-2.25830078125,-0.91552734375,-1.03759765625
1291.8249998092651,-0.689453125,0.2646484375,0.81640625,1257.9116666316986,1257.9100000858307,1.6665458679199219,-2.01416015625,-4.7607421875,-1.3427734375
1291.829999923706,-0.6181640625,0.27783203125,0.80322265625,1257.9166667461395,1257.914999961853,1.6667842864990234,-0.1220703125,-3.7841796875,-1.40380859375
1291.8349997997284,-0.560546875,0.26123046875,0.83740234375,1257.921666622162,1257.920000076294,1.6665458681472956,-2.25830078125,-4.08935546875,-1.03759765625
1291.8399999141693,-0.63623046875,0.19775390625,0.79150390625,1257.9266667366028,1257.9249999523165,1.6667842862716498,0.1220703125,-0.48828125,-1.3427734375
1291.8449997901917,-0.673828125,0.14892578125,0.7265625,1257.9316666126251,1257.9300000667572,1.6665458679199219,-1.15966796875,-3.7841796875,-2.01416015625
1291.8499999046326,-0.72021484375,0.22705078125,0.75634765625,1257.936666727066,1257.9349999427795,1.6667842864990234,-1.46484375,8.7890625,-1.5869140625
1291.854999780655,-0.759765625,0.203125,0.7890625,1257.9416666030884,1257.9400000572205,1.6665458679199219,-1.3427734375,5.2490234375,-1.28173828125
1291.8599998950958,-0.6328125,0.26416015625,0.83349609375,1257.9466667175293,1257.9450001716614,1.6665458679199219,-2.3193359375,-10.07080078125,-1.64794921875
1291.8649997711182,-0.62744140625,0.31982421875,0.76513671875,1257.9516665935516,1257.9500000476835,1.6665458681472956,-0.06103515625,-6.28662109375,-1.77001953125
1291.869999885559,-0.6298828125,0.3388671875,0.763671875,1257.9566667079926,1257.9550001621246,1.6665458679199219,-1.5869140625,-2.62451171875,-1.220703125
1291.875,-0.66552734375,0.15869140625,0.78125,1257.9616668224337,1257.960000038147,1.6667842867263971,-0.18310546875,1.15966796875,-0.8544921875
1291.8799998760223,-0.6533203125,0.10009765625,0.732421875,1257.9666666984558,1257.965000152588,1.6665458679199219,-1.953125,-8.30078125,-1.89208984375
1291.8849999904633,-0.681640625,0.16357421875,0.72607421875,1257.9716668128967,1257.9700000286102,1.6667842864990234,-2.9296875,-4.8828125,-2.5634765625
1291.8899998664856,-0.69091796875,0.19873046875,0.7314453125,1257.976666688919,1257.9750001430511,1.6665458679199219,-1.03759765625,6.8359375,-2.01416015625
1291.8949999809265,-0.65625,0.14794921875,0.74267578125,1257.98166680336,1257.9800000190735,1.6667842864990234,-1.64794921875,1.953125,-0.9765625
1291.8999998569489,-0.6376953125,0.18115234375,0.78564453125,1257.9866666793823,1257.9850001335144,1.6665458679199219,-2.8076171875,-6.16455078125,-1.15966796875
1291.9049999713898,-0.6513671875,0.2578125,0.78076171875,1257.9916667938232,1257.9900000095367,1.6667842864990234,-0.18310546875,-2.25830078125,-1.0986328125
1291.909999847412,-0.59814453125,0.3125,0.77685546875,1257.9966666698456,1257.995000123978,1.6665458676925482,-0.79345703125,-0.79345703125,-1.28173828125
1291.914999961853,-0.654296875,0.3017578125,0.76318359375,1258.0016667842865,1258.0,1.6667842864990234,-1.3427734375,-1.40380859375,-0.54931640625
1291.9199998378754,-0.68701171875,0.1865234375,0.71875,1258.0066666603088,1258.005000114441,1.6665458679199219,-0.48828125,-0.18310546875,-1.03759765625
1291.9249999523165,-0.66796875,0.1689453125,0.71484375,1258.01166677475,1258.0099999904637,1.6667842862716498,-2.50244140625,-0.1220703125,-1.708984375
1291.9299998283386,-0.6923828125,0.15576171875,0.76025390625,1258.016666650772,1258.0150001049042,1.6665458679199219,-1.89208984375,6.9580078125,-1.46484375
1291.9349999427795,-0.67919921875,0.18994140625,0.7978515625,1258.021666765213,1258.0199999809265,1.6667842864990234,-2.3193359375,0.54931640625,-1.77001953125
1291.939999818802,-0.62744140625,0.2314453125,0.79541015625,1258.0266666412356,1258.0250000953674,1.6665458681472956,-1.40380859375,-6.89697265625,-1.64794921875
1291.9449999332428,-0.65185546875,0.27294921875,0.74658203125,1258.0316667556765,1258.0299999713898,1.6667842867263971,-0.67138671875,-7.62939453125,-1.40380859375
1291.9499998092651,-0.59912109375,0.25341796875,0.74365234375,1258.0366666316986,1258.0350000858307,1.6665458679199219,-1.5869140625,-3.7841796875,-1.0986328125
1291.954999923706,-0.60009765625,0.17822265625,0.70458984375,1258.0416667461395,1258.039999961853,1.6667842864990234,-1.28173828125,-1.64794921875,-1.220703125
1291.9599997997284,-0.68310546875,0.1640625,0.6572265625,1258.046666622162,1258.045000076294,1.6665458681472956,-1.46484375,0.0,-2.3193359375
1291.9649999141693,-0.70361328125,0.24609375,0.71142578125,1258.0516667366028,1258.0499999523165,1.6667842862716498,-2.9296875,7.26318359375,-2.38037109375
1291.9699997901917,-0.68505859375,0.20654296875,0.7734375,1258.0566666126251,1258.0550000667572,1.6665458679199219,-0.54931640625,10.92529296875,-1.15966796875
1291.9749999046326,-0.64697265625,0.1826171875,0.822265625,1258.061666727066,1258.0599999427795,1.6667842864990234,-2.50244140625,2.0751953125,-1.03759765625
1291.979999780655,-0.66650390625,0.23486328125,0.81884765625,1258.0666666030884,1258.0650000572205,1.6665458679199219,-1.64794921875,-8.97216796875,-1.3427734375
1291.9849998950958,-0.62060546875,0.2802734375,0.7900390625,1258.0716667175293,1258.0700001716614,1.6665458679199219,-0.1220703125,-7.4462890625,-1.52587890625
1291.9899997711182,-0.61669921875,0.29345703125,0.794921875,1258.0766665935516,1258.0750000476835,1.6665458681472956,-1.8310546875,-1.708984375,-1.15966796875
1291.994999885559,-0.7021484375,0.21875,0.7255859375,1258.0816667079926,1258.0800001621246,1.6665458679199219,0.30517578125,4.94384765625,-1.220703125
1292.0,-0.638671875,0.2646484375,0.833984375,1258.0866668224337,1258.085000038147,1.6667842867263971,-2.01416015625,-6.9580078125,-1.220703125
1292.0049998760223,-0.58740234375,0.26025390625,0.8125,1258.0916666984558,1258.090000152588,1.6665458679199219,-0.1220703125,-3.7841796875,-0.91552734375
1292.0099999904633,-0.63720703125,0.22412109375,0.798828125,1258.0966668128967,1258.0950000286102,1.6667842864990234,-1.89208984375,2.0751953125,-0.91552734375
1292.0149998664856,-0.70166015625,0.1572265625,0.75244140625,1258.101666688919,1258.1000001430511,1.6665458679199219,-0.6103515625,-1.3427734375,-1.5869140625
1292.0199999809265,-0.69189453125,0.1572265625,0.72314453125,1258.10666680336,1258.1050000190735,1.6667842864990234,-2.13623046875,-5.92041015625,-2.38037109375
1292.0249998569489,-0.68017578125,0.224609375,0.72314453125,1258.1116666793823,1258.1100001335144,1.6665458679199219,-1.03759765625,4.69970703125,-1.64794921875
1292.0299999713898,-0.72021484375,0.2119140625,0.7529296875,1258.1166667938232,1258.1150000095367,1.6667842864990234,-2.38037109375,4.69970703125,-1.46484375
1292.034999847412,-0.626953125,0.22412109375,0.7978515625,1258.1216666698456,1258.120000123978,1.6665458676925482,-2.3193359375,-0.6103515625,-1.52587890625
1292.039999961853,-0.6396484375,0.259765625,0.82666015625,1258.1266667842865,1258.125,1.6667842864990234,-1.15966796875,-1.64794921875,-1.0986328125
1292.0449998378754,-0.60888671875,0.28173828125,0.83154296875,1258.1316666603088,1258.130000114441,1.6665458679199219,-1.0986328125,-3.7841796875,-1.46484375
1292.0499999523165,-0.625,0.22314453125,0.8095703125,1258.13666677475,1258.1349999904637,1.6667842862716498,-1.28173828125,-1.953125,-1.46484375
1292.0549998283386,-0.63720703125,0.1572265625,0.7265625,1258.141666650772,1258.1400001049042,1.6665458679199219,-0.18310546875,-5.18798828125,-1.8310546875
1292.0599999427795,-0.70947265625,0.173828125,0.701171875,1258.146666765213,1258.1449999809265,1.6667842864990234,-2.8076171875,-0.244140625,-2.197265625
1292.064999818802,-0.64794921875,0.19775390625,0.72265625,1258.1516666412356,1258.1500000953674,1.6665458681472956,-1.28173828125,2.99072265625,-1.89208984375
1292.0699999332428,-0.6826171875,0.1611328125,0.71435546875,1258.1566667556765,1258.1549999713898,1.6667842867263971,-1.5869140625,0.9765625,-1.40380859375
1292.0749998092651,-0.6533203125,0.2431640625,0.7861328125,1258.1616666316986,1258.1600000858307,1.6665458679199219,-2.685546875,-1.77001953125,-2.197265625
1292.079999923706,-0.6455078125,0.27392578125,0.7685546875,1258.1666667461395,1258.164999961853,1.6667842864990234,0.42724609375,5.615234375,-1.8310546875
1292.0849997997284,-0.61083984375,0.2744140625,0.81298828125,1258.171666622162,1258.170000076294,1.6665458681472956,-2.01416015625,0.244140625,-0.8544921875
1292.0899999141693,-0.6533203125,0.2060546875,0.80224609375,1258.1766667366028,1258.1749999523165,1.6667842862716498,-1.0986328125,-2.8076171875,-0.732421875
1292.0949997901917,-0.68310546875,0.13330078125,0.6923828125,1258.1816666126251,1258.1800000667572,1.6665458679199219,-0.3662109375,-12.0849609375,-1.8310546875
1292.0999999046326,-0.63525390625,0.17919921875,0.6826171875,1258.186666727066,1258.1849999427795,1.6667842864990234,-3.47900390625,-8.7890625,-2.685546875
1292.104999780655,-0.6982421875,0.18505859375,0.677734375,1258.1916666030884,1258.1900000572205,1.6665458679199219,-1.64794921875,7.38525390625,-2.01416015625
1292.1099998950958,-0.68017578125,0.14990234375,0.71484375,1258.1966667175293,1258.1950001716614,1.6665458679199219,-1.46484375,7.99560546875,-1.3427734375
1292.1149997711182,-0.60107421875,0.1904296875,0.79541015625,1258.2016665935516,1258.2000000476835,1.6665458681472956,-2.99072265625,-0.9765625,-1.52587890625
1292.119999885559,-0.642578125,0.25439453125,0.7939453125,1258.2066667079926,1258.2050001621246,1.6665458679199219,-0.30517578125,0.06103515625,-1.220703125
1292.125,-0.60009765625,0.2939453125,0.8154296875,1258.2116668224337,1258.210000038147,1.6667842867263971,-1.89208984375,-5.7373046875,-1.0986328125
1292.1299998760223,-0.6240234375,0.21728515625,0.73681640625,1258.2166666984558,1258.215000152588,1.6665458679199219,0.244140625,-4.82177734375,-1.0986328125
1292.1349999904633,-0.69873046875,0.16650390625,0.6767578125,1258.2216668128967,1258.2200000286102,1.6667842864990234,-1.5869140625,-4.39453125,-1.64794921875
1292.1399998664856,-0.67724609375,0.18310546875,0.69580078125,1258.226666688919,1258.2250001430511,1.6665458679199219,-2.9296875,2.01416015625,-2.13623046875
1292.1449999809265,-0.66943359375,0.146484375,0.755859375,1258.23166680336,1258.2300000190735,1.6667842864990234,-1.15966796875,11.53564453125,-1.28173828125
1292.1499998569489,-0.6474609375,0.18896484375,0.83349609375,1258.2366666793823,1258.2350001335144,1.6665458679199219,-2.38037109375,-3.84521484375,-1.64794921875
1292.1549999713898,-0.67236328125,0.296875,0.78515625,1258.2416667938232,1258.2400000095367,1.6667842864990234,-0.06103515625,-4.7607421875,-2.44140625
1292.159999847412,-0.62451171875,0.35888671875,0.7607421875,1258.2466666698456,1258.245000123978,1.6665458676925482,-0.18310546875,-3.7841796875,-1.40380859375
1292.164999961853,-0.5849609375,0.2685546875,0.791015625,1258.2516667842865,1258.25,1.6667842864990234,-1.46484375,-1.708984375,-0.3662109375
1292.1699998378754,-0.5888671875,0.16552734375,0.765625,1258.2566666603088,1258.255000114441,1.6665458679199219,-0.8544921875,-8.056640625,-0.91552734375
1292.1749999523165,-0.63720703125,0.12744140625,0.6845703125,1258.26166677475,1258.2599999904637,1.6667842862716498,-2.0751953125,-4.69970703125,-3.0517578125
1292.1799998283386,-0.6875,0.23193359375,0.7138671875,1258.266666650772,1258.2650001049042,1.6665458679199219,-2.5634765625,7.32421875,-2.9296875
1292.1849999427795,-0.76904296875,0.19091796875,0.75244140625,1258.271666765213,1258.2699999809265,1.6667842864990234,-0.67138671875,18.5546875,-1.5869140625
1292.189999818802,-0.6865234375,0.13525390625,0.8447265625,1258.2766666412356,1258.2750000953674,1.6665458681472956,-2.44140625,2.99072265625,-1.0986328125
1292.1949999332428,-0.61669921875,0.2138671875,0.89453125,1258.2816667556765,1258.2799999713898,1.6667842867263971,-2.3193359375,-9.1552734375,-1.46484375
1292.1999998092651,-0.65087890625,0.31298828125,0.77001953125,1258.2866666316986,1258.2850000858307,1.6665458679199219,-0.06103515625,-9.58251953125,-1.64794921875
1292.204999923706,-0.6396484375,0.26171875,0.73388671875,1258.2916667461395,1258.289999961853,1.6667842864990234,-1.52587890625,-7.38525390625,-1.220703125
1292.2099997997284,-0.64111328125,0.1904296875,0.6875,1258.296666622162,1258.295000076294,1.6665458681472956,-0.18310546875,-5.7373046875,-1.15966796875
1292.2149999141693,-0.70849609375,0.154296875,0.6552734375,1258.3016667366028,1258.2999999523165,1.6667842862716498,-2.197265625,0.244140625,-2.25830078125
1292.2199997901917,-0.671875,0.16650390625,0.7177734375,1258.3066666126251,1258.3050000667572,1.6665458679199219,-2.3193359375,8.11767578125,-2.0751953125
1292.2249999046326,-0.67724609375,0.1357421875,0.82177734375,1258.311666727066,1258.3099999427795,1.6667842864990234,-2.0751953125,8.97216796875,-1.3427734375
1292.229999780655,-0.68115234375,0.236328125,0.87109375,1258.3166666030884,1258.3150000572205,1.6665458679199219,-2.01416015625,-3.41796875,-1.8310546875
1292.2349998950958,-0.66162109375,0.30517578125,0.81494140625,1258.3216667175293,1258.3200001716614,1.6665458679199219,0.79345703125,-3.41796875,-1.89208984375
1292.2399997711182,-0.57763671875,0.2705078125,0.8046875,1258.3266665935516,1258.3250000476835,1.6665458681472956,-1.3427734375,-10.68115234375,-0.732421875
1292.244999885559,-0.6328125,0.1806640625,0.74658203125,1258.3316667079926,1258.3300001621246,1.6665458679199219,-1.220703125,-10.92529296875,-1.03759765625
1292.25,-0.60986328125,0.12255859375,0.685546875,1258.3366668224337,1258.335000038147,1.6667842867263971,-1.15966796875,-10.07080078125,-2.25830078125
1292.2549998760223,-0.65625,0.1953125,0.6611328125,1258.3416666984558,1258.340000152588,1.6665458679199219,-2.38037109375,6.9580078125,-3.11279296875
1292.2599999904633,-0.73388671875,0.1962890625,0.70458984375,1258.3466668128967,1258.3450000286102,1.6667842864990234,-1.03759765625,12.939453125,-2.01416015625
1292.2649998664856,-0.716796875,0.15673828125,0.794921875,1258.351666688919,1258.3500001430511,1.6665458679199219,-2.685546875,7.38525390625,-1.52587890625
1292.2699999809265,-0.6337890625,0.1943359375,0.84912109375,1258.35666680336,1258.3550000190735,1.6667842864990234,-1.52587890625,-6.34765625,-1.52587890625
1292.2749998569489,-0.57275390625,0.31005859375,0.81005859375,1258.3616666793823,1258.3600001335144,1.6665458679199219,-0.48828125,-8.4228515625,-1.5869140625
1292.2799999713898,-0.568359375,0.28271484375,0.80908203125,1258.3666667938232,1258.3650000095367,1.6667842864990234,-1.220703125,-3.23486328125,-1.3427734375
1292.284999847412,-0.607421875,0.17236328125,0.70361328125,1258.3716666698456,1258.370000123978,1.6665458676925482,0.79345703125,-4.33349609375,-1.220703125
1292.289999961853,-0.7041015625,0.16015625,0.662109375,1258.3766667842865,1258.375,1.6667842864990234,-2.62451171875,-4.7607421875,-2.197265625
1292.2949998378754,-0.6552734375,0.19580078125,0.68994140625,1258.3816666603088,1258.380000114441,1.6665458679199219,-1.40380859375,3.96728515625,-2.50244140625
1292.2999999523165,-0.66064453125,0.12939453125,0.76025390625,1258.38666677475,1258.3849999904637,1.6667842862716498,-1.5869140625,8.6669921875,-1.64794921875
1292.3049998283386,-0.65869140625,0.23876953125,0.828125,1258.391666650772,1258.3900001049042,1.6665458679199219,-2.3193359375,-2.62451171875,-1.8310546875
1292.3099999427795,-0.6806640625,0.30078125,0.77490234375,1258.396666765213,1258.3949999809265,1.6667842864990234,0.9765625,0.244140625,-1.77001953125
1292.314999818802,-0.6064453125,0.30029296875,0.76953125,1258.4016666412356,1258.4000000953674,1.6665458681472956,-1.220703125,-13.00048828125,-0.79345703125
1292.3199999332428,-0.60693359375,0.203125,0.76416015625,1258.4066667556765,1258.4049999713898,1.6667842867263971,-1.8310546875,-9.1552734375,-0.48828125
1292.3249998092651,-0.623046875,0.1015625,0.7001953125,1258.4116666316986,1258.4100000858307,1.6665458679199219,-0.1220703125,-6.7138671875,-1.46484375
1292.329999923706,-0.640625,0.125,0.67138671875,1258.4166667461395,1258.414999961853,1.6667842864990234,-1.64794921875,3.84521484375,-2.38037109375
1292.3349997997284,-0.697265625,0.2060546875,0.73486328125,1258.421666622162,1258.420000076294,1.6665458681472956,-1.64794921875,15.31982421875,-1.8310546875
1292.3399999141693,-0.77197265625,0.1806640625,0.75634765625,1258.4266667366028,1258.4249999523165,1.6667842862716498,0.1220703125,11.5966796875,-0.79345703125
1292.3449997901917,-0.64501953125,0.22021484375,0.822265625,1258.4316666126251,1258.4300000667572,1.6665458679199219,-2.62451171875,-14.09912109375,-0.9765625
1292.3499999046326,-0.6181640625,0.26513671875,0.7646484375,1258.436666727066,1258.4349999427795,1.6667842864990234,0.67138671875,-8.056640625,-1.15966796875
1292.354999780655,-0.56298828125,0.24560546875,0.76025390625,1258.4416666030884,1258.4400000572205,1.6665458679199219,-0.91552734375,-3.72314453125,-1.5869140625
1292.3599998950958,-0.578125,0.21728515625,0.77587890625,1258.4466667175293,1258.4450001716614,1.6665458679199219,-0.8544921875,6.7138671875,-1.28173828125
1292.3649997711182,-0.68603515625,0.14794921875,0.7421875,1258.4516665935516,1258.4500000476835,1.6665458681472956,0.18310546875,7.6904296875,-1.3427734375
1292.369999885559,-0.75048828125,0.15771484375,0.75,1258.4566667079926,1258.4550001621246,1.6665458679199219,-2.3193359375,1.8310546875,-2.13623046875
1292.375,-0.69091796875,0.15673828125,0.7607421875,1258.4616668224337,1258.460000038147,1.6667842867263971,-0.6103515625,-2.8076171875,-1.77001953125
1292.3799998760223,-0.576171875,0.22412109375,0.791015625,1258.4666666984558,1258.465000152588,1.6665458679199219,-2.3193359375,-9.82666015625,-1.89208984375
1292.3849999904633,-0.634765625,0.265625,0.765625,1258.4716668128967,1258.4700000286102,1.6667842864990234,0.48828125,0.67138671875,-1.5869140625
1292.3899998664856,-0.59326171875,0.30078125,0.75048828125,1258.476666688919,1258.4750001430511,1.6665458679199219,0.6103515625,-0.06103515625,-1.28173828125
1292.3949999809265,-0.59619140625,0.28515625,0.794921875,1258.48166680336,1258.4800000190735,1.6667842864990234,-1.77001953125,0.8544921875,-0.79345703125
1292.3999998569489,-0.6474609375,0.16259765625,0.76318359375,1258.4866666793823,1258.4850001335144,1.6665458679199219,0.18310546875,-4.08935546875,-1.15966796875
1292.4049999713898,-0.6943359375,0.115234375,0.693359375,1258.4916667938232,1258.4900000095367,1.6667842864990234,-1.3427734375,-3.173828125,-2.86865234375
1292.409999847412,-0.6767578125,0.193359375,0.75048828125,1258.4966666698456,1258.495000123978,1.6665458676925482,-2.13623046875,9.33837890625,-2.8076171875
1292.414999961853,-0.75,0.17822265625,0.78857421875,1258.5016667842865,1258.5,1.6667842864990234,0.0,15.5029296875,-1.52587890625
1292.4199998378754,-0.68994140625,0.1591796875,0.81884765625,1258.5066666603088,1258.505000114441,1.6665458679199219,-1.708984375,-5.615234375,-1.0986328125
1292.4249999523165,-0.6103515625,0.25439453125,0.796875,1258.51166677475,1258.5099999904637,1.6667842862716498,-0.6103515625,-14.22119140625,-1.5869140625
1292.4299998283386,-0.59521484375,0.30419921875,0.72705078125,1258.516666650772,1258.5150001049042,1.6665458679199219,0.48828125,-9.521484375,-2.0751953125
1292.4349999427795,-0.5751953125,0.28759765625,0.71923828125,1258.521666765213,1258.5199999809265,1.6667842864990234,-1.40380859375,-1.8310546875,-1.708984375
1292.439999818802,-0.61572265625,0.17822265625,0.708984375,1258.5266666412356,1258.5250000953674,1.6665458681472956,-0.244140625,5.859375,-1.5869140625
1292.4449999332428,-0.70849609375,0.14208984375,0.6953125,1258.5316667556765,1258.5299999713898,1.6667842867263971,-1.77001953125,5.859375,-2.3193359375
1292.4499998092651,-0.7197265625,0.17236328125,0.76123046875,1258.5366666316986,1258.5350000858307,1.6665458679199219,-2.38037109375,4.5166015625,-2.38037109375
1292.454999923706,-0.6748046875,0.138671875,0.79443359375,1258.5416667461395,1258.539999961853,1.6667842864990234,-0.732421875,3.5400390625,-1.708984375
1292.4599997997284,-0.68994140625,0.16357421875,0.8017578125,1258.546666622162,1258.545000076294,1.6665458681472956,-1.40380859375,-1.15966796875,-1.52587890625
1292.4649999141693,-0.6416015625,0.24365234375,0.78955078125,1258.5516667366028,1258.5499999523165,1.6667842862716498,-0.54931640625,-8.9111328125,-1.5869140625
1292.4699997901917,-0.5625,0.29443359375,0.75146484375,1258.5566666126251,1258.5550000667572,1.6665458679199219,0.67138671875,-9.765625,-1.03759765625
1292.4749999046326,-0.58203125,0.1884765625,0.72705078125,1258.561666727066,1258.5599999427795,1.6667842864990234,-1.15966796875,-2.0751953125,-0.67138671875
1292.479999780655,-0.66064453125,0.1142578125,0.66162109375,1258.5666666030884,1258.5650000572205,1.6665458679199219,-0.30517578125,-2.197265625,-1.953125
1292.4849998950958,-0.658203125,0.197265625,0.68212890625,1258.5716667175293,1258.5700001716614,1.6665458679199219,-2.13623046875,6.7138671875,-2.86865234375
1292.4899997711182,-0.7099609375,0.2646484375,0.7236328125,1258.5766665935516,1258.5750000476835,1.6665458681472956,-0.48828125,13.00048828125,-1.46484375
1292.494999885559,-0.75048828125,0.1845703125,0.7666015625,1258.5816667079926,1258.5800001621246,1.6665458679199219,-0.54931640625,10.986328125,-0.67138671875
1292.5,-0.61328125,0.1796875,0.83447265625,1258.5866668224337,1258.585000038147,1.6667842867263971,-2.3193359375,-14.22119140625,-1.03759765625
1292.5049998760223,-0.59033203125,0.25341796875,0.77294921875,1258.5916666984558,1258.590000152588,1.6665458679199219,0.8544921875,-6.34765625,-1.64794921875
1292.5099999904633,-0.59228515625,0.2705078125,0.7509765625,1258.5966668128967,1258.5950000286102,1.6667842864990234,-1.0986328125,-7.2021484375,-1.28173828125
1292.5149998664856,-0.6005859375,0.14794921875,0.66650390625,1258.601666688919,1258.6000001430511,1.6665458679199219,0.732421875,-2.9296875,-0.79345703125
1292.5199999809265,-0.6328125,0.11376953125,0.6748046875,1258.60666680336,1258.6050000190735,1.6667842864990234,-2.197265625,-1.89208984375,-1.40380859375
1292.5249998569489,-0.65234375,0.1923828125,0.7099609375,1258.6116666793823,1258.6100001335144,1.6665458679199219,-0.91552734375,10.8642578125,-1.8310546875
1292.5299999713898,-0.67236328125,0.1748046875,0.72802734375,1258.6166667938232,1258.6150000095367,1.6667842864990234,0.0,10.6201171875,-1.03759765625
1292.534999847412,-0.6982421875,0.14697265625,0.7529296875,1258.6216666698456,1258.620000123978,1.6665458676925482,-1.64794921875,2.5634765625,-0.79345703125
1292.539999961853,-0.68017578125,0.2216796875,0.83251953125,1258.6266667842865,1258.625,1.6667842864990234,-1.89208984375,-2.50244140625,-0.9765625
1292.5449998378754,-0.6552734375,0.2568359375,0.81494140625,1258.6316666603088,1258.630000114441,1.6665458679199219,1.52587890625,1.5869140625,-0.91552734375
1292.5499999523165,-0.58251953125,0.19921875,0.7841796875,1258.63666677475,1258.6349999904637,1.6667842862716498,-1.03759765625,-9.70458984375,-0.06103515625
1292.5549998283386,-0.626953125,0.09375,0.70849609375,1258.641666650772,1258.6400001049042,1.6665458679199219,-0.30517578125,-13.36669921875,-0.91552734375
1292.5599999427795,-0.60400390625,0.099609375,0.669921875,1258.646666765213,1258.6449999809265,1.6667842864990234,-1.52587890625,-2.44140625,-2.44140625
1292.564999818802,-0.7001953125,0.205078125,0.6650390625,1258.6516666412356,1258.6500000953674,1.6665458681472956,-1.03759765625,12.14599609375,-2.0751953125
1292.5699999332428,-0.75439453125,0.20361328125,0.720703125,1258.6566667556765,1258.6549999713898,1.6667842867263971,0.06103515625,17.2119140625,-0.79345703125
1292.5749998092651,-0.6201171875,0.18603515625,0.85498046875,1258.6616666316986,1258.6600000858307,1.6665458679199219,-1.77001953125,-5.67626953125,-0.67138671875
1292.579999923706,-0.6298828125,0.21240234375,0.826171875,1258.6666667461395,1258.664999961853,1.6667842864990234,0.3662109375,-4.638671875,-1.28173828125
1292.5849997997284,-0.61865234375,0.27197265625,0.8076171875,1258.671666622162,1258.670000076294,1.6665458681472956,-0.3662109375,-4.8828125,-1.46484375
1292.5899999141693,-0.6298828125,0.244140625,0.79931640625,1258.6766667366028,1258.6749999523165,1.6667842862716498,-0.1220703125,-1.5869140625,-0.9765625
1292.5949997901917,-0.65966796875,0.16455078125,0.73583984375,1258.6816666126251,1258.6800000667572,1.6665458679199219,0.54931640625,-4.150390625,-1.15966796875
1292.5999999046326,-0.72998046875,0.1484375,0.70556640625,1258.686666727066,1258.6849999427795,1.6667842864990234,-1.8310546875,1.708984375,-2.13623046875
1292.604999780655,-0.69384765625,0.18896484375,0.76025390625,1258.6916666030884,1258.6900000572205,1.6665458679199219,-1.0986328125,6.8359375,-2.13623046875
1292.6099998950958,-0.69970703125,0.16650390625,0.771484375,1258.6966667175293,1258.6950001716614,1.6665458679199219,0.0,7.38525390625,-1.28173828125
1292.6149997711182,-0.67431640625,0.19580078125,0.806640625,1258.7016665935516,1258.7000000476835,1.6665458681472956,-1.28173828125,-7.50732421875,-1.03759765625
1292.619999885559,-0.6640625,0.28125,0.7939453125,1258.7066667079926,1258.7050001621246,1.6665458679199219,0.06103515625,-5.55419921875,-1.220703125
1292.625,-0.5634765625,0.30029296875,0.79931640625,1258.7116668224337,1258.710000038147,1.6667842867263971,-0.6103515625,-4.39453125,-0.54931640625
1292.6299998760223,-0.61279296875,0.1806640625,0.7666015625,1258.7166666984558,1258.715000152588,1.6665458679199219,-0.30517578125,-3.35693359375,-0.42724609375
1292.6349999904633,-0.65771484375,0.10791015625,0.7138671875,1258.7216668128967,1258.7200000286102,1.6667842864990234,0.6103515625,-2.62451171875,-1.40380859375
1292.6399998664856,-0.67333984375,0.16650390625,0.74267578125,1258.726666688919,1258.7250001430511,1.6665458679199219,-2.13623046875,6.7138671875,-2.25830078125
1292.6449999809265,-0.76806640625,0.21875,0.7841796875,1258.73166680336,1258.7300000190735,1.6667842864990234,0.18310546875,17.51708984375,-1.40380859375
1292.6499998569489,-0.6796875,0.1728515625,0.85302734375,1258.7366666793823,1258.7350001335144,1.6665458679199219,-1.953125,-10.80322265625,-0.54931640625
1292.6549999713898,-0.59716796875,0.2138671875,0.833984375,1258.7416667938232,1258.7400000095367,1.6667842864990234,-0.06103515625,-13.18359375,-1.03759765625
1292.659999847412,-0.62158203125,0.27294921875,0.7822265625,1258.7466666698456,1258.745000123978,1.6665458676925482,1.03759765625,0.0,-1.28173828125
1292.664999961853,-0.6552734375,0.33447265625,0.8095703125,1258.7516667842865,1258.75,1.6667842864990234,-0.9765625,5.0048828125,-1.03759765625
1292.6699998378754,-0.658203125,0.2548828125,0.7890625,1258.7566666603088,1258.755000114441,1.6665458679199219,1.03759765625,4.5166015625,-0.42724609375
1292.6749999523165,-0.75634765625,0.16943359375,0.7392578125,1258.76166677475,1258.7599999904637,1.6667842862716498,-0.67138671875,-3.5400390625,-0.91552734375
1292.6799998283386,-0.70654296875,0.193359375,0.76025390625,1258.766666650772,1258.7650001049042,1.6665458679199219,-1.708984375,-4.638671875,-1.3427734375
1292.6849999427795,-0.64453125,0.154296875,0.79248046875,1258.771666765213,1258.7699999809265,1.6667842864990234,-0.06103515625,2.8076171875,-0.91552734375
1292.689999818802,-0.63525390625,0.16162109375,0.81689453125,1258.7766666412356,1258.7750000953674,1.6665458681472956,-1.52587890625,0.42724609375,-1.03759765625
1292.6949999332428,-0.69580078125,0.21435546875,0.810546875,1258.7816667556765,1258.7799999713898,1.6667842867263971,-0.1220703125,1.28173828125,-1.52587890625
1292.6999998092651,-0.673828125,0.30224609375,0.81494140625,1258.7866666316986,1258.7850000858307,1.6665458679199219,0.0,0.30517578125,-0.91552734375
1292.704999923706,-0.578125,0.24365234375,0.826171875,1258.7916667461395,1258.789999961853,1.6667842864990234,0.0,-9.3994140625,0.0
1292.7099997997284,-0.64794921875,0.15234375,0.74755859375,1258.796666622162,1258.795000076294,1.6665458681472956,-0.1220703125,-13.97705078125,-0.732421875
1292.7149999141693,-0.619140625,0.15283203125,0.6669921875,1258.8016667366028,1258.7999999523165,1.6667842862716498,-0.3662109375,-10.25390625,-2.197265625
1292.7199997901917,-0.6875,0.236328125,0.70263671875,1258.8066666126251,1258.8050000667572,1.6665458679199219,-1.77001953125,14.16015625,-2.0751953125
1292.7249999046326,-0.7822265625,0.16162109375,0.81689453125,1258.811666727066,1258.8099999427795,1.6667842864990234,-0.732421875,14.6484375,-1.46484375
1292.729999780655,-0.6328125,0.203125,0.89990234375,1258.8166666030884,1258.8150000572205,1.6665458679199219,-2.3193359375,-12.5732421875,-1.64794921875
1292.7349998950958,-0.58984375,0.2177734375,0.7939453125,1258.8216667175293,1258.8200001716614,1.6665458679199219,1.46484375,-18.49365234375,-0.91552734375
1292.7399997711182,-0.5673828125,0.2314453125,0.71875,1258.8266665935516,1258.8250000476835,1.6665458681472956,0.0,-15.5029296875,-0.8544921875
1292.744999885559,-0.5556640625,0.23193359375,0.6884765625,1258.8316667079926,1258.8300001621246,1.6665458679199219,-0.9765625,-3.72314453125,-1.15966796875
1292.75,-0.65234375,0.1474609375,0.63916015625,1258.8366668224337,1258.835000038147,1.6667842867263971,0.79345703125,6.28662109375,-1.220703125
