t,x,y,z,time_from_sync,aligned_time,time_diff_ms,gyro_x,gyro_y,gyro_z
126.76999998092651,1.0107421875,-0.080078125,-0.0595703125,95.00166682402292,95.0,1.6668240229193998,0.06103515625,0.0,0.30517578125
126.77499985694884,0.99853515625,-0.02734375,-0.05126953125,95.00666670004526,95.00500011444092,1.6665856043402982,0.1220703125,-0.06103515625,-0.30517578125
126.77999997138976,0.998046875,-0.0302734375,-0.02783203125,95.01166681448618,95.00999999046326,1.6668240229193998,0.0,0.0,-0.06103515625
126.78499984741212,1.00634765625,-0.02587890625,-0.01171875,95.01666669050854,95.01500010490416,1.6665856043829308,0.1220703125,0.06103515625,-0.06103515625
126.78999996185304,0.99169921875,-0.021484375,-0.0166015625,95.02166680494946,95.01999998092651,1.6668240229478215,0.0,0.0,0.244140625
126.79499983787537,0.9912109375,-0.033203125,-0.04150390625,95.0266666809718,95.02500009536742,1.6665856043829308,-0.06103515625,0.06103515625,0.0
126.79999995231628,0.9853515625,-0.03955078125,-0.0634765625,95.0316667954127,95.02999997138976,1.6668240229478215,0.0,0.18310546875,0.244140625
126.80499982833862,0.98095703125,-0.04345703125,-0.05712890625,95.03666667143504,95.0350000858307,1.6665856043402982,0.0,0.0,0.0
126.80999994277954,0.98974609375,-0.03173828125,-0.0419921875,95.04166678587596,95.039999961853,1.6668240229620324,0.0,0.0,-0.06103515625
126.81499981880188,0.9921875,-0.0439453125,-0.02783203125,95.0466666618983,95.04500007629392,1.6665856043829308,0.0,0.0,0.0
126.8199999332428,1.01025390625,-0.0478515625,-0.021484375,95.05166677633922,95.0499999523163,1.6668240229193998,0.0,-0.06103515625,-0.1220703125
126.82499980926514,1.00830078125,-0.0126953125,-0.0439453125,95.05666665236156,95.05500006675722,1.6665856043402982,0.0,0.0,-0.06103515625
126.82999992370604,1.001953125,-0.01220703125,-0.046875,95.06166676680246,95.05999994277954,1.6668240229193998,-0.06103515625,0.0,-0.42724609375
126.8349997997284,1.0107421875,-0.00439453125,-0.04248046875,95.0666666428248,95.06500005722046,1.6665856043402982,0.18310546875,0.06103515625,0.30517578125
126.83999991416933,0.99560546875,-0.03857421875,-0.03564453125,95.07166675726576,95.07000017166138,1.6665856043829308,0.0,-0.06103515625,0.18310546875
126.84499979019164,0.98681640625,-0.03955078125,-0.03515625,95.07666663328806,95.07500004768372,1.6665856043402982,-0.06103515625,0.06103515625,0.06103515625
126.84999990463255,1.0068359375,-0.04443359375,-0.05712890625,95.08166674772896,95.08000016212463,1.6665856043260874,0.0,0.0,0.0
126.85499978065492,1.013671875,-0.046875,-0.06689453125,95.08666662375134,95.08500003814696,1.6665856043829308,-0.1220703125,0.0,-0.1220703125
126.85999989509584,0.9912109375,-0.0361328125,-0.06787109375,95.09166673819226,95.09000015258788,1.6665856043829308,-0.06103515625,0.06103515625,0.1220703125
126.86499977111816,0.974609375,-0.017578125,-0.03369140625,95.09666661421458,95.09500002861022,1.66658560436872,0.0,0.0,-0.42724609375
126.86999988555908,1.005859375,-0.05078125,-0.02197265625,95.1016667286555,95.10000014305112,1.6665856043829308,0.30517578125,0.06103515625,0.244140625
126.875,0.9775390625,-0.0078125,-0.01318359375,95.10666684309642,95.1050000190735,1.6668240229193998,-0.244140625,0.0,-0.54931640625
126.87999987602234,0.99462890625,-0.021484375,-0.0361328125,95.11166671911876,95.11000013351442,1.6665856043402982,-0.1220703125,0.1220703125,0.06103515625
126.88499999046326,0.9814453125,-0.0263671875,-0.0625,95.11666683355968,95.11500000953674,1.6668240229336106,-0.244140625,0.1220703125,0.1220703125
126.8899998664856,0.98779296875,-0.03515625,-0.09033203125,95.12166670958202,95.12000012397766,1.666585604354509,0.0,0.1220703125,0.54931640625
126.89499998092651,0.9755859375,-0.0703125,-0.07470703125,95.12666682402292,95.125,1.6668240229193998,-0.1220703125,0.0,0.0
126.89999985694884,0.99853515625,-0.068359375,-0.04736328125,95.13166670004526,95.13000011444092,1.6665856043402982,0.18310546875,-0.06103515625,0.0
126.90499997138976,1.013671875,-0.0439453125,-0.0341796875,95.13666681448618,95.13499999046326,1.6668240229193998,0.0,0.06103515625,-0.244140625
126.90999984741212,1.01806640625,-0.02734375,-0.02734375,95.14166669050854,95.14000010490416,1.6665856043829308,0.0,0.0,-0.48828125
126.91499996185304,1.001953125,-0.01123046875,-0.0400390625,95.14666680494946,95.14499998092651,1.6668240229478215,-0.18310546875,0.0,-0.06103515625
126.91999983787537,0.9921875,0.0029296875,-0.03857421875,95.1516666809718,95.15000009536742,1.6665856043829308,0.0,0.06103515625,0.1220703125
126.92499995231628,0.99609375,-0.025390625,-0.02490234375,95.1566667954127,95.15499997138976,1.6668240229478215,0.0,0.06103515625,0.244140625
126.92999982833862,1.001953125,-0.02587890625,-0.02783203125,95.16166667143504,95.1600000858307,1.6665856043402982,0.18310546875,0.1220703125,0.1220703125
126.93499994277954,0.99658203125,-0.06689453125,-0.03759765625,95.16666678587596,95.164999961853,1.6668240229620324,-0.1220703125,0.1220703125,0.244140625
126.93999981880188,1.005859375,-0.0302734375,-0.056640625,95.1716666618983,95.17000007629392,1.6665856043829308,0.1220703125,0.0,0.0
126.9449999332428,1.0068359375,-0.0556640625,-0.056640625,95.17666677633922,95.1749999523163,1.6668240229193998,-0.244140625,-0.1220703125,-0.3662109375
126.94999980926514,1.00341796875,-0.0224609375,-0.0478515625,95.18166665236156,95.18000006675722,1.6665856043402982,0.06103515625,-0.06103515625,-0.06103515625
126.95499992370604,1.01171875,-0.0458984375,-0.02294921875,95.18666676680246,95.18499994277954,1.6668240229193998,0.244140625,-0.18310546875,-0.30517578125
126.9599997997284,1.00048828125,-0.02978515625,-0.0146484375,95.1916666428248,95.19000005722046,1.6665856043402982,0.18310546875,0.1220703125,0.0
126.96499991416933,0.99462890625,-0.01416015625,-0.0146484375,95.19666675726576,95.19500017166138,1.6665856043829308,0.0,0.0,-0.3662109375
126.96999979019164,0.994140625,-0.03759765625,-0.03369140625,95.20166663328806,95.20000004768372,1.6665856043402982,-0.06103515625,0.0,0.0
126.97499990463255,0.9736328125,-0.0361328125,-0.06640625,95.20666674772896,95.20500016212463,1.6665856043260874,0.0,0.0,0.3662109375
126.97999978065492,0.96435546875,-0.0498046875,-0.064453125,95.21166662375134,95.21000003814696,1.6665856043829308,0.0,0.0,0.1220703125
126.98499989509584,0.9833984375,-0.03466796875,-0.0498046875,95.21666673819226,95.21500015258788,1.6665856043829308,0.18310546875,0.0,-0.06103515625
126.98999977111816,0.98388671875,-0.052734375,-0.03173828125,95.22166661421458,95.22000002861022,1.66658560436872,0.0,0.0,-0.06103515625
126.99499988555908,1.01318359375,-0.0458984375,-0.0146484375,95.2266667286555,95.22500014305112,1.6665856043829308,0.0,0.0,-0.06103515625
127.0,1.00830078125,-0.01318359375,-0.05078125,95.23166684309642,95.2300000190735,1.6668240229193998,0.0,0.06103515625,-0.244140625
127.00499987602234,1.0087890625,-0.00732421875,-0.05224609375,95.23666671911876,95.23500013351442,1.6665856043402982,0.0,0.0,-0.06103515625
127.00999999046326,1.00537109375,-0.03173828125,-0.04638671875,95.24166683355968,95.24000000953674,1.6668240229336106,0.06103515625,0.0,0.54931640625
127.0149998664856,0.99609375,-0.029296875,-0.04345703125,95.24666670958202,95.24500012397766,1.666585604354509,-0.1220703125,0.0,0.0
127.01999998092651,0.99462890625,-0.052734375,-0.04296875,95.25166682402292,95.25,1.6668240229193998,0.0,0.18310546875,0.1220703125
127.02499985694884,1.0126953125,-0.04443359375,-0.05908203125,95.25666670004526,95.25500011444092,1.6665856043402982,-0.06103515625,0.0,0.0
127.02999997138976,1.0126953125,-0.046875,-0.06982421875,95.26166681448618,95.25999999046326,1.6668240229193998,0.1220703125,0.06103515625,0.0
127.03499984741212,0.99267578125,-0.0322265625,-0.06103515625,95.26666669050854,95.26500010490416,1.6665856043829308,0.0,0.0,-0.18310546875
127.03999996185304,0.98486328125,-0.02978515625,-0.02880859375,95.27166680494946,95.26999998092651,1.6668240229478215,0.0,0.0,-0.3662109375
127.04499983787537,1.01318359375,-0.0263671875,-0.02001953125,95.2766666809718,95.27500009536742,1.6665856043829308,0.06103515625,0.0,-0.244140625
127.04999995231628,0.990234375,-0.00634765625,-0.02001953125,95.2816667954127,95.27999997138976,1.6668240229478215,-0.1220703125,0.06103515625,-0.244140625
127.05499982833862,0.98583984375,-0.029296875,-0.05029296875,95.28666667143504,95.2850000858307,1.6665856043402982,0.0,0.0,0.18310546875
127.05999994277954,0.98046875,-0.02685546875,-0.0673828125,95.29166678587596,95.289999961853,1.6668240229620324,-0.18310546875,0.0,0.0
127.06499981880188,0.986328125,-0.04931640625,-0.078125,95.2966666618983,95.29500007629392,1.6665856043829308,0.18310546875,0.0,0.54931640625
127.0699999332428,0.97265625,-0.03271484375,-0.0576171875,95.30166677633922,95.2999999523163,1.6668240229193998,0.0,0.0,-0.1220703125
127.07499980926514,0.998046875,-0.0673828125,-0.041015625,95.30666665236156,95.30500006675722,1.6665856043402982,0.0,0.0,-0.30517578125
127.07999992370604,1.01123046875,-0.03466796875,-0.03369140625,95.31166676680246,95.30999994277954,1.6668240229193998,0.0,0.0,-0.3662109375
127.0849997997284,1.01025390625,-0.03955078125,-0.03369140625,95.3166666428248,95.31500005722046,1.6665856043402982,-0.06103515625,0.06103515625,0.0
127.08999991416933,0.99755859375,-0.00390625,-0.05126953125,95.32166675726576,95.32000017166138,1.6665856043829308,0.0,0.0,-0.30517578125
127.09499979019164,0.9912109375,-0.0078125,-0.04345703125,95.32666663328806,95.32500004768372,1.6665856043402982,-0.1220703125,0.0,0.06103515625
127.09999990463255,0.986328125,-0.02197265625,-0.0341796875,95.33166674772896,95.33000016212463,1.6665856043260874,0.0,0.06103515625,0.18310546875
127.10499978065492,0.98876953125,-0.01806640625,-0.0361328125,95.33666662375134,95.33500003814696,1.6665856043829308,0.0,0.0,0.1220703125
127.10999989509584,0.9892578125,-0.0673828125,-0.04345703125,95.34166673819226,95.34000015258788,1.6665856043829308,0.0,0.06103515625,0.30517578125
127.11499977111816,1.0,-0.02197265625,-0.04638671875,95.34666661421458,95.34500002861022,1.66658560436872,0.0,0.0,-0.244140625
127.11999988555908,1.013671875,-0.0673828125,-0.06298828125,95.3516667286555,95.35000014305112,1.6665856043829308,0.244140625,0.0,0.54931640625
127.125,1.00634765625,-0.02685546875,-0.05712890625,95.35666684309642,95.3550000190735,1.6668240229193998,0.06103515625,0.0,-0.18310546875
127.12999987602234,1.0029296875,-0.03466796875,-0.025390625,95.36166671911876,95.36000013351442,1.6665856043402982,0.0,0.0,0.0
127.13499999046326,0.99658203125,-0.029296875,-0.01416015625,95.36666683355968,95.36500000953674,1.6668240229336106,0.0,0.0,0.0
127.1399998664856,1.0068359375,-0.01611328125,-0.01123046875,95.37166670958202,95.37000012397766,1.666585604354509,-0.06103515625,0.06103515625,-0.1220703125
127.14499998092651,0.99560546875,-0.02392578125,-0.04150390625,95.37666682402292,95.375,1.6668240229193998,-0.06103515625,0.06103515625,-0.1220703125
127.14999985694884,0.97021484375,-0.0517578125,-0.05810546875,95.38166670004526,95.38000011444092,1.6665856043402982,0.1220703125,0.0,0.54931640625
127.15499997138976,0.9755859375,-0.03466796875,-0.04248046875,95.38666681448618,95.38499999046326,1.6668240229193998,0.06103515625,0.0,-0.244140625
127.15999984741212,0.9873046875,-0.0546875,-0.025390625,95.39166669050854,95.39000010490416,1.6665856043829308,0.244140625,0.0,0.244140625
127.16499996185304,0.9853515625,-0.04296875,-0.0185546875,95.39666680494946,95.39499998092651,1.6668240229478215,0.0,0.0,-0.42724609375
127.16999983787537,1.01416015625,-0.0498046875,-0.01513671875,95.4016666809718,95.40000009536742,1.6665856043829308,0.0,0.0,-0.1220703125
127.17499995231628,1.00244140625,-0.00341796875,-0.0380859375,95.4066667954127,95.40499997138976,1.6668240229478215,0.0,-0.06103515625,-0.244140625
127.17999982833862,0.9990234375,-0.02490234375,-0.0361328125,95.41166667143504,95.4100000858307,1.6665856043402982,-0.06103515625,0.0,-0.18310546875
127.18499994277954,0.99609375,-0.0107421875,-0.03369140625,95.41666678587596,95.414999961853,1.6668240229620324,0.0,0.0,0.42724609375
127.18999981880188,0.9990234375,-0.03759765625,-0.03125,95.4216666618983,95.42000007629392,1.6665856043829308,-0.06103515625,0.0,0.0
127.1949999332428,1.00146484375,-0.0361328125,-0.0439453125,95.42666677633922,95.4249999523163,1.6668240229193998,-0.06103515625,-0.06103515625,0.244140625
127.19999980926514,1.00390625,-0.0556640625,-0.064453125,95.43166665236156,95.43000006675722,1.6665856043402982,0.0,0.0,0.1220703125
127.20499992370604,1.00048828125,-0.04296875,-0.06103515625,95.43666676680246,95.43499994277954,1.6668240229193998,0.06103515625,-0.1220703125,0.1220703125
127.2099997997284,0.99072265625,-0.0478515625,-0.0498046875,95.4416666428248,95.44000005722046,1.6665856043402982,0.06103515625,-0.06103515625,-0.3662109375
127.21499991416933,0.99560546875,-0.00537109375,-0.0224609375,95.44666675726576,95.44500017166138,1.6665856043829308,0.244140625,0.0,-0.732421875
127.21999979019164,1.01806640625,-0.03955078125,-0.02099609375,95.45166663328806,95.45000004768372,1.6665856043402982,0.06103515625,0.06103515625,0.0
127.22499990463255,1.00244140625,-0.00830078125,-0.0341796875,95.45666674772896,95.45500016212463,1.6665856043260874,0.06103515625,0.0,0.06103515625
127.22999978065492,0.98193359375,-0.03125,-0.05712890625,95.46166662375134,95.46000003814696,1.6665856043829308,-0.1220703125,0.0,0.0
127.23499989509584,0.990234375,-0.01806640625,-0.07861328125,95.46666673819226,95.46500015258788,1.6665856043829308,-0.1220703125,0.0,-0.06103515625
127.23999977111816,0.97900390625,-0.06396484375,-0.0849609375,95.47166661421458,95.47000002861022,1.66658560436872,0.06103515625,0.06103515625,0.6103515625
127.24499988555908,0.99560546875,-0.03271484375,-0.0712890625,95.4766667286555,95.47500014305112,1.6665856043829308,0.0,-0.06103515625,-0.06103515625
127.25,0.98828125,-0.068359375,-0.0498046875,95.48166684309642,95.4800000190735,1.6668240229193998,0.06103515625,-0.06103515625,0.0
127.25499987602234,1.01416015625,-0.03759765625,-0.03466796875,95.48666671911876,95.48500013351442,1.6665856043402982,0.18310546875,0.0,-0.244140625
127.25999999046326,1.01513671875,-0.02001953125,-0.03173828125,95.49166683355968,95.49000000953674,1.6668240229336106,-0.06103515625,-0.1220703125,-0.6103515625
127.2649998664856,0.99853515625,-0.01611328125,-0.04541015625,95.49666670958202,95.49500012397766,1.666585604354509,-0.06103515625,0.06103515625,-0.1220703125
127.26999998092651,0.98193359375,-0.0029296875,-0.04248046875,95.50166682402292,95.5,1.6668240229193998,0.0,0.06103515625,0.06103515625
127.27499985694884,0.990234375,-0.03271484375,-0.02978515625,95.50666670004526,95.50500011444092,1.6665856043402982,0.0,0.1220703125,0.18310546875
127.27999997138976,0.9931640625,-0.01611328125,-0.02734375,95.51166681448618,95.50999999046326,1.6668240229193998,0.0,0.1220703125,0.0
127.28499984741212,0.98974609375,-0.078125,-0.03857421875,95.51666669050854,95.51500010490416,1.6665856043829308,-0.18310546875,0.18310546875,0.42724609375
127.28999996185304,1.00390625,-0.02294921875,-0.06689453125,95.52166680494946,95.51999998092651,1.6668240229478215,-0.1220703125,0.0,-0.1220703125
127.29499983787537,0.9990234375,-0.07373046875,-0.06689453125,95.5266666809718,95.52500009536742,1.6665856043829308,-0.1220703125,0.0,0.1220703125
127.29999995231628,1.0,-0.01611328125,-0.0576171875,95.5316667954127,95.52999997138976,1.6668240229478215,0.244140625,0.0,-0.18310546875
127.30499982833862,1.01025390625,-0.0419921875,-0.0146484375,95.53666667143504,95.5350000858307,1.6665856043402982,0.06103515625,0.0,-0.1220703125
127.30999994277954,0.994140625,-0.0068359375,-0.01025390625,95.54166678587596,95.539999961853,1.6668240229620324,0.0,0.1220703125,-0.3662109375
127.31499981880188,1.001953125,-0.0400390625,-0.01513671875,95.5466666618983,95.54500007629392,1.6665856043829308,0.06103515625,0.1220703125,0.18310546875
127.3199999332428,0.99072265625,-0.0205078125,-0.0546875,95.55166677633922,95.5499999523163,1.6668240229193998,0.06103515625,0.06103515625,-0.18310546875
127.32499980926514,0.9794921875,-0.041015625,-0.06640625,95.55666665236156,95.55500006675722,1.6665856043402982,0.1220703125,0.0,0.48828125
127.32999992370604,0.978515625,-0.04833984375,-0.05859375,95.56166676680246,95.55999994277954,1.6668240229193998,0.1220703125,0.0,0.0
127.3349997997284,0.986328125,-0.04345703125,-0.048828125,95.5666666428248,95.56500005722046,1.6665856043402982,0.06103515625,0.06103515625,0.1220703125
127.33999991416933,0.99267578125,-0.04736328125,-0.033203125,95.57166675726576,95.57000017166138,1.6665856043829308,0.0,-0.06103515625,0.0
127.34499979019164,1.0244140625,-0.03515625,-0.0361328125,95.57666663328806,95.57500004768372,1.6665856043402982,0.0,-0.1220703125,-0.30517578125
127.34999990463255,1.0,-0.01953125,-0.04345703125,95.58166674772896,95.58000016212463,1.6665856043260874,-0.06103515625,-0.18310546875,-0.18310546875
127.35499978065492,1.00537109375,0.001953125,-0.0341796875,95.58666662375134,95.58500003814696,1.6665856043829308,0.0,0.06103515625,-0.18310546875
127.35999989509584,0.99365234375,-0.03271484375,-0.0234375,95.59166673819226,95.59000015258788,1.6665856043829308,0.06103515625,0.06103515625,0.18310546875
127.36499977111816,1.00341796875,-0.0283203125,-0.0380859375,95.59666661421458,95.59500002861022,1.66658560436872,0.06103515625,0.06103515625,0.30517578125
127.36999988555908,0.98828125,-0.0654296875,-0.03564453125,95.6016667286555,95.60000014305112,1.6665856043829308,-0.06103515625,0.0,0.06103515625
127.375,1.0009765625,-0.02001953125,-0.05322265625,95.60666684309642,95.6050000190735,1.6668240229193998,0.18310546875,0.06103515625,-0.06103515625
127.37999987602234,1.0009765625,-0.0712890625,-0.05322265625,95.61166671911876,95.61000013351442,1.6665856043402982,0.0,0.0,0.18310546875
127.38499999046326,0.99755859375,-0.02099609375,-0.052734375,95.61666683355968,95.61500000953674,1.6668240229336106,0.06103515625,0.0,-0.244140625
127.3899998664856,0.9912109375,-0.03515625,-0.02587890625,95.62166670958202,95.62000012397766,1.666585604354509,0.0,0.0,-0.1220703125
127.39499998092651,0.99609375,-0.01416015625,-0.01171875,95.62666682402292,95.625,1.6668240229193998,0.06103515625,0.0,-0.3662109375
127.39999985694884,0.9921875,-0.00537109375,-0.01171875,95.63166670004526,95.63000011444092,1.6665856043402982,-0.06103515625,0.06103515625,-0.3662109375
127.40499997138976,0.99853515625,-0.02978515625,-0.03564453125,95.63666681448618,95.63499999046326,1.6668240229193998,0.0,0.0,0.1220703125
127.40999984741212,0.97607421875,-0.01513671875,-0.0703125,95.64166669050854,95.64000010490416,1.6665856043829308,-0.18310546875,0.0,-0.1220703125
127.41499996185304,0.9833984375,-0.0615234375,-0.0859375,95.64666680494946,95.64499998092651,1.6668240229478215,0.06103515625,0.0,0.732421875
127.41999983787537,0.984375,-0.04541015625,-0.06201171875,95.6516666809718,95.65000009536742,1.6665856043829308,0.06103515625,0.0,0.06103515625
127.42499995231628,0.994140625,-0.05029296875,-0.041015625,95.6566667954127,95.65499997138976,1.6668240229478215,0.0,0.0,-0.30517578125
127.42999982833862,1.02587890625,-0.04150390625,-0.03076171875,95.66166667143504,95.6600000858307,1.6665856043402982,-0.1220703125,-0.1220703125,-0.244140625
127.43499994277954,1.00830078125,-0.01318359375,-0.04736328125,95.66666678587596,95.664999961853,1.6668240229620324,0.06103515625,0.0,-0.1220703125
127.43999981880188,1.00048828125,-0.0048828125,-0.0517578125,95.6716666618983,95.67000007629392,1.6665856043829308,-0.1220703125,0.06103515625,-0.30517578125
127.4449999332428,0.9853515625,0.00048828125,-0.05029296875,95.67666677633922,95.6749999523163,1.6668240229193998,0.0,0.18310546875,0.18310546875
127.44999980926514,0.99609375,-0.0244140625,-0.03564453125,95.68166665236156,95.68000006675722,1.6665856043402982,-0.06103515625,0.06103515625,-0.06103515625
127.45499992370604,0.9951171875,-0.0283203125,-0.0322265625,95.68666676680246,95.68499994277954,1.6668240229193998,0.1220703125,0.0,0.18310546875
127.4599997997284,1.00732421875,-0.0625,-0.04052734375,95.6916666428248,95.69000005722046,1.6665856043402982,-0.06103515625,0.0,0.48828125
127.46499991416933,0.9912109375,-0.0390625,-0.06689453125,95.69666675726576,95.69500017166138,1.6665856043829308,0.0,0.06103515625,-0.18310546875
127.46999979019164,1.01611328125,-0.05126953125,-0.0712890625,95.70166663328806,95.70000004768372,1.6665856043402982,0.0,0.0,-0.06103515625
127.47499990463255,1.005859375,-0.0380859375,-0.052734375,95.70666674772896,95.70500016212463,1.6665856043260874,0.1220703125,0.06103515625,-0.3662109375
127.47999978065492,0.99267578125,-0.0126953125,-0.0283203125,95.71166662375134,95.71000003814696,1.6665856043829308,0.0,0.0,0.0
127.48499989509584,0.99365234375,-0.037109375,-0.01123046875,95.71666673819226,95.71500015258788,1.6665856043829308,-0.1220703125,0.06103515625,-0.48828125
127.48999977111816,0.99072265625,-0.009765625,-0.025390625,95.72166661421458,95.72000002861022,1.66658560436872,-0.1220703125,0.0,0.18310546875
127.49499988555908,0.98974609375,-0.0537109375,-0.04345703125,95.7266667286555,95.72500014305112,1.6665856043829308,-0.42724609375,0.06103515625,0.0
127.5,0.98486328125,-0.04052734375,-0.0712890625,95.73166684309642,95.7300000190735,1.6668240229193998,0.06103515625,0.06103515625,0.3662109375
127.50499987602234,0.96630859375,-0.0400390625,-0.0556640625,95.73666671911876,95.73500013351442,1.6665856043402982,0.1220703125,0.1220703125,0.0
127.50999999046326,0.99267578125,-0.046875,-0.03466796875,95.74166683355968,95.74000000953674,1.6668240229336106,0.244140625,0.06103515625,0.06103515625
127.5149998664856,0.99365234375,-0.048828125,-0.02294921875,95.74666670958202,95.74500012397766,1.666585604354509,0.06103515625,0.06103515625,-0.1220703125
127.51999998092651,1.02099609375,-0.03466796875,-0.015625,95.75166682402292,95.75,1.6668240229193998,0.0,0.0,-0.3662109375
127.52499985694884,1.00634765625,-0.0146484375,-0.04248046875,95.75666670004526,95.75500011444092,1.6665856043402982,-0.06103515625,0.0,-0.06103515625
127.52999997138976,1.00732421875,-0.00537109375,-0.05078125,95.76166681448618,95.75999999046326,1.6668240229193998,0.0,0.0,-0.30517578125
127.53499984741212,0.998046875,-0.0234375,-0.044921875,95.76666669050854,95.76500010490416,1.6665856043829308,0.30517578125,0.06103515625,0.42724609375
127.53999996185304,0.994140625,-0.03271484375,-0.037109375,95.77166680494946,95.76999998092651,1.6668240229478215,0.0,0.06103515625,0.06103515625
127.54499983787537,0.9921875,-0.0458984375,-0.03466796875,95.7766666809718,95.77500009536742,1.6665856043829308,0.06103515625,0.06103515625,0.06103515625
127.54999995231628,1.00439453125,-0.04736328125,-0.05615234375,95.7816667954127,95.77999997138976,1.6668240229478215,0.0,0.0,0.0
127.55499982833862,1.00830078125,-0.04345703125,-0.064453125,95.78666667143504,95.7850000858307,1.6665856043402982,0.0,0.0,-0.18310546875
127.55999994277954,0.978515625,-0.04638671875,-0.05517578125,95.79166678587596,95.789999961853,1.6668240229620324,0.1220703125,0.0,0.06103515625
127.56499981880188,0.99169921875,-0.017578125,-0.02587890625,95.7966666618983,95.79500007629392,1.6665856043829308,0.06103515625,0.0,-0.732421875
127.5699999332428,1.01171875,-0.0576171875,-0.01318359375,95.80166677633922,95.7999999523163,1.6668240229193998,0.30517578125,0.0,0.42724609375
127.57499980926514,0.9990234375,-0.00146484375,-0.021484375,95.80666665236156,95.80500006675722,1.6665856043402982,0.0,0.0,0.244140625
127.57999992370604,0.978515625,-0.0390625,-0.046875,95.81166676680246,95.80999994277954,1.6668240229193998,0.0,0.0,0.18310546875
127.5849997997284,0.990234375,-0.00634765625,-0.08056640625,95.8166666428248,95.81500005722046,1.6665856043402982,0.06103515625,0.0,-0.06103515625
127.58999991416933,0.978515625,-0.07666015625,-0.06640625,95.82166675726576,95.82000017166138,1.6665856043829308,0.06103515625,0.0,0.3662109375
127.59499979019164,0.98828125,-0.02490234375,-0.05224609375,95.82666663328806,95.82500004768372,1.6665856043402982,0.18310546875,0.0,0.1220703125
127.59999990463255,0.99365234375,-0.0703125,-0.02490234375,95.83166674772896,95.83000016212463,1.6665856043260874,0.0,0.0,-0.18310546875
127.60499978065492,1.00146484375,-0.046875,-0.025390625,95.83666662375134,95.83500003814696,1.6665856043829308,0.06103515625,0.0,-0.06103515625
127.60999989509584,1.017578125,-0.0263671875,-0.029296875,95.84166673819226,95.84000015258788,1.6665856043829308,-0.1220703125,0.0,-0.1220703125
127.61499977111816,0.99609375,-0.01123046875,-0.04638671875,95.84666661421458,95.84500002861022,1.66658560436872,-0.06103515625,-0.06103515625,-0.1220703125
127.61999988555908,1.00048828125,0.00439453125,-0.04248046875,95.8516667286555,95.85000014305112,1.6665856043829308,0.0,0.06103515625,0.18310546875
127.625,0.9873046875,-0.02490234375,-0.02978515625,95.85666684309642,95.8550000190735,1.6668240229193998,0.0,0.06103515625,0.1220703125
127.62999987602234,1.00048828125,-0.02783203125,-0.0361328125,95.86166671911876,95.86000013351442,1.6665856043402982,0.18310546875,0.06103515625,0.0
127.63499999046326,0.9970703125,-0.06298828125,-0.0478515625,95.86666683355968,95.86500000953674,1.6668240229336106,-0.18310546875,-0.06103515625,-0.06103515625
127.6399998664856,1.015625,-0.03125,-0.0693359375,95.87166670958202,95.87000012397766,1.666585604354509,0.06103515625,0.0,0.1220703125
127.64499998092651,1.00048828125,-0.04345703125,-0.0595703125,95.87666682402292,95.875,1.6668240229193998,-0.244140625,-0.06103515625,-0.3662109375
127.64999985694884,0.99658203125,-0.03515625,-0.0478515625,95.88166670004526,95.88000011444092,1.6665856043402982,0.18310546875,-0.06103515625,-0.1220703125
127.65499997138976,0.998046875,-0.02734375,-0.02685546875,95.88666681448618,95.88499999046326,1.6668240229193998,-0.06103515625,-0.18310546875,-0.30517578125
127.65999984741212,0.9951171875,-0.03515625,-0.02001953125,95.89166669050854,95.89000010490416,1.6665856043829308,0.0,0.0,-0.1220703125
127.66499996185304,1.00341796875,-0.015625,-0.0302734375,95.89666680494946,95.89499998092651,1.6668240229478215,-0.06103515625,0.0,-0.30517578125
127.66999983787537,0.9931640625,-0.0263671875,-0.05859375,95.9016666809718,95.90000009536742,1.6665856043829308,-0.06103515625,0.0,-0.06103515625
127.67499995231628,0.98095703125,-0.033203125,-0.0771484375,95.9066667954127,95.90499997138976,1.6668240229478215,0.1220703125,0.244140625,0.30517578125
127.67999982833862,0.96240234375,-0.05224609375,-0.0576171875,95.91166667143504,95.9100000858307,1.6665856043402982,0.0,0.0,0.0
127.68499994277954,0.9921875,-0.0458984375,-0.03955078125,95.91666678587596,95.914999961853,1.6668240229620324,0.18310546875,0.06103515625,0.06103515625
127.68999981880188,0.98876953125,-0.04052734375,-0.03173828125,95.9216666618983,95.92000007629392,1.6665856043829308,0.0,0.0,-0.18310546875
127.6949999332428,1.01025390625,-0.0439453125,-0.0322265625,95.92666677633922,95.9249999523163,1.6668240229193998,0.06103515625,-0.06103515625,-0.42724609375
127.69999980926514,0.994140625,-0.01904296875,-0.0498046875,95.93166665236156,95.93000006675722,1.6665856043402982,0.06103515625,0.0,0.0
127.70499992370604,0.99853515625,-0.01611328125,-0.04296875,95.93666676680246,95.93499994277954,1.6668240229193998,0.06103515625,0.06103515625,-0.18310546875
127.7099997997284,0.99755859375,-0.03662109375,-0.03369140625,95.9416666428248,95.94000005722046,1.6665856043402982,0.06103515625,0.06103515625,0.30517578125
127.71499991416933,1.00341796875,-0.0302734375,-0.044921875,95.94666675726576,95.94500017166138,1.6665856043829308,0.0,0.06103515625,0.30517578125
127.71999979019164,0.99365234375,-0.03662109375,-0.0478515625,95.95166663328806,95.95000004768372,1.6665856043402982,-0.1220703125,0.06103515625,0.1220703125
127.72499990463255,1.0107421875,-0.0478515625,-0.05859375,95.95666674772896,95.95500016212463,1.6665856043260874,0.06103515625,0.06103515625,0.18310546875
127.72999978065492,1.00927734375,-0.041015625,-0.06396484375,95.96166662375134,95.96000003814696,1.6665856043829308,0.06103515625,-0.06103515625,-0.244140625
127.73499989509584,1.00341796875,-0.048828125,-0.05126953125,95.96666673819226,95.96500015258788,1.6665856043829308,0.06103515625,0.06103515625,0.18310546875
127.73999977111816,0.98046875,-0.021484375,-0.02587890625,95.97166661421458,95.97000002861022,1.66658560436872,0.0,0.06103515625,-0.42724609375
127.74499988555908,1.0185546875,-0.0205078125,-0.0087890625,95.9766667286555,95.97500014305112,1.6665856043829308,0.0,-0.1220703125,-0.18310546875
127.75,1.00146484375,-0.0087890625,-0.01806640625,95.98166684309642,95.9800000190735,1.6668240229193998,0.0,-0.06103515625,-0.244140625
127.75499987602234,0.98291015625,-0.0185546875,-0.04443359375,95.98666671911876,95.98500013351442,1.6665856043402982,-0.18310546875,0.06103515625,0.0
127.75999999046326,0.9814453125,-0.04150390625,-0.06298828125,95.99166683355968,95.99000000953674,1.6668240229336106,-0.18310546875,0.1220703125,0.3662109375
127.7649998664856,0.98583984375,-0.05322265625,-0.0712890625,95.99666670958202,95.99500012397766,1.666585604354509,0.18310546875,0.06103515625,0.42724609375
127.76999998092651,0.98876953125,-0.03857421875,-0.06201171875,96.00166682402292,96.0,1.6668240229193998,0.06103515625,0.0,-0.1220703125
127.77499985694884,0.99658203125,-0.04736328125,-0.03125,96.00666670004526,96.00500011444092,1.6665856043402982,0.06103515625,0.06103515625,-0.3662109375
127.77999997138976,1.01220703125,-0.03466796875,-0.02099609375,96.01166681448618,96.00999999046326,1.6668240229193998,0.0,-0.06103515625,-0.244140625
127.78499984741212,1.00634765625,-0.02685546875,-0.025390625,96.01666669050854,96.01500010490416,1.6665856043829308,-0.06103515625,0.0,-0.244140625
127.78999996185304,1.0,-0.0146484375,-0.037109375,96.02166680494946,96.01999998092651,1.6668240229478215,-0.06103515625,-0.06103515625,-0.06103515625
127.79499983787537,0.97607421875,-0.0087890625,-0.03515625,96.0266666809718,96.02500009536742,1.6665856043829308,-0.1220703125,0.06103515625,0.06103515625
127.79999995231628,0.9951171875,-0.01904296875,-0.03125,96.0316667954127,96.02999997138976,1.6668240229478215,0.0,0.0,0.06103515625
127.80499982833862,0.9853515625,-0.02001953125,-0.03662109375,96.03666667143504,96.0350000858307,1.6665856043402982,0.0,0.06103515625,0.3662109375
127.80999994277954,1.001953125,-0.0712890625,-0.04296875,96.04166678587596,96.039999961853,1.6668240229620324,-0.06103515625,0.06103515625,0.30517578125
127.81499981880188,1.00146484375,-0.0205078125,-0.0625,96.0466666618983,96.04500007629392,1.6665856043829308,0.0,-0.1220703125,-0.1220703125
127.8199999332428,1.0087890625,-0.07861328125,-0.06640625,96.05166677633922,96.0499999523163,1.6668240229193998,0.0,0.0,0.244140625
127.82499980926514,1.01123046875,-0.03271484375,-0.04931640625,96.05666665236156,96.05500006675722,1.6665856043402982,0.3662109375,0.0,-0.30517578125
127.82999992370604,1.0,-0.0234375,-0.029296875,96.06166676680246,96.05999994277954,1.6668240229193998,0.0,-0.06103515625,0.0
127.8349997997284,0.99755859375,-0.017578125,-0.0205078125,96.0666666428248,96.06500005722046,1.6665856043402982,0.0,0.0,-0.42724609375
127.83999991416933,0.99560546875,-0.02978515625,-0.02392578125,96.07166675726576,96.07000017166138,1.6665856043829308,0.0,0.06103515625,0.18310546875
127.84499979019164,0.99560546875,-0.01708984375,-0.056640625,96.07666663328806,96.07500004768372,1.6665856043402982,-0.1220703125,0.0,-0.244140625
127.84999990463255,0.9765625,-0.04052734375,-0.0654296875,96.08166674772896,96.08000016212463,1.6665856043260874,0.0,0.0,0.06103515625
127.85499978065492,0.9765625,-0.044921875,-0.05078125,96.08666662375134,96.08500003814696,1.6665856043829308,0.06103515625,0.06103515625,0.0
127.85999989509584,0.99755859375,-0.02978515625,-0.03857421875,96.09166673819226,96.09000015258788,1.6665856043829308,0.1220703125,0.1220703125,0.0
127.86499977111816,1.00439453125,-0.05419921875,-0.03564453125,96.09666661421458,96.09500002861022,1.66658560436872,0.18310546875,0.0,-0.1220703125
127.86999988555908,1.009765625,-0.02978515625,-0.033203125,96.1016667286555,96.10000014305112,1.6665856043829308,-0.18310546875,0.0,-0.18310546875
127.875,1.0029296875,-0.017578125,-0.04638671875,96.10666684309642,96.1050000190735,1.6668240229193998,0.0,0.0,-0.18310546875
127.87999987602234,1.00439453125,-0.0009765625,-0.03857421875,96.11166671911876,96.11000013351442,1.6665856043402982,0.0,0.0,-0.30517578125
127.88499999046326,0.9970703125,-0.02783203125,-0.03466796875,96.11666683355968,96.11500000953674,1.6668240229336106,0.18310546875,0.0,0.48828125
127.8899998664856,0.9970703125,-0.0283203125,-0.037109375,96.12166670958202,96.12000012397766,1.666585604354509,0.0,0.06103515625,0.0
127.89499998092651,0.9853515625,-0.05322265625,-0.04150390625,96.12666682402292,96.125,1.6668240229193998,0.0,0.06103515625,0.18310546875
127.89999985694884,1.00390625,-0.05224609375,-0.068359375,96.13166670004526,96.13000011444092,1.6665856043402982,0.1220703125,0.1220703125,0.42724609375
127.90499997138976,1.00048828125,-0.046875,-0.06298828125,96.13666681448618,96.13499999046326,1.6668240229193998,-0.1220703125,0.0,-0.18310546875
127.90999984741212,0.99658203125,-0.04345703125,-0.0517578125,96.14166669050854,96.14000010490416,1.6665856043829308,0.30517578125,0.0,0.18310546875
127.91499996185304,0.98779296875,-0.01708984375,-0.0126953125,96.14666680494946,96.14499998092651,1.6668240229478215,0.18310546875,-0.1220703125,-0.6103515625
127.91999983787537,1.01123046875,-0.04541015625,-0.01025390625,96.1516666809718,96.15000009536742,1.6665856043829308,0.30517578125,0.0,0.0
127.92499995231628,0.99951171875,-0.00341796875,-0.0234375,96.1566667954127,96.15499997138976,1.6668240229478215,-0.1220703125,0.06103515625,0.0
127.92999982833862,0.98583984375,-0.02685546875,-0.05029296875,96.16166667143504,96.1600000858307,1.6665856043402982,-0.06103515625,0.0,0.18310546875
127.93499994277954,0.97998046875,-0.02490234375,-0.080078125,96.16666678587596,96.164999961853,1.6668240229620324,0.0,0.1220703125,0.1220703125
127.93999981880188,0.982421875,-0.060546875,-0.06884765625,96.1716666618983,96.17000007629392,1.6665856043829308,0.06103515625,0.0,0.3662109375
127.9449999332428,0.990234375,-0.03271484375,-0.0576171875,96.17666677633922,96.1749999523163,1.6668240229193998,0.0,-0.06103515625,-0.06103515625
127.94999980926514,0.99462890625,-0.06494140625,-0.03662109375,96.18166665236156,96.18000006675722,1.6665856043402982,0.06103515625,0.0,-0.1220703125
127.95499992370604,1.0234375,-0.0498046875,-0.033203125,96.18666676680246,96.18499994277954,1.6668240229193998,0.1220703125,0.0,-0.06103515625
127.9599997997284,1.021484375,-0.0087890625,-0.0390625,96.1916666428248,96.19000005722046,1.6665856043402982,-0.06103515625,-0.06103515625,-0.54931640625
127.96499991416933,1.00048828125,-0.01513671875,-0.0439453125,96.19666675726576,96.19500017166138,1.6665856043829308,-0.18310546875,0.0,-0.30517578125
127.96999979019164,0.98828125,-0.0029296875,-0.037109375,96.20166663328806,96.20000004768372,1.6665856043402982,0.0,0.1220703125,0.42724609375
127.97499990463255,0.99560546875,-0.01123046875,-0.02880859375,96.20666674772896,96.20500016212463,1.6665856043260874,-0.06103515625,0.06103515625,0.0
127.97999978065492,0.99853515625,-0.04443359375,-0.03271484375,96.21166662375134,96.21000003814696,1.6665856043829308,0.06103515625,0.06103515625,0.18310546875
127.98499989509584,0.98779296875,-0.04638671875,-0.0498046875,96.21666673819226,96.21500015258788,1.6665856043829308,-0.18310546875,-0.1220703125,-0.18310546875
127.98999977111816,1.0078125,-0.06396484375,-0.064453125,96.22166661421458,96.22000002861022,1.66658560436872,0.244140625,0.0,0.42724609375
127.99499988555908,0.994140625,-0.03076171875,-0.0615234375,96.2266667286555,96.22500014305112,1.6665856043829308,-0.06103515625,-0.18310546875,-0.54931640625
128.0,0.99267578125,-0.03759765625,-0.0458984375,96.23166684309642,96.2300000190735,1.6668240229193998,0.1220703125,0.0,0.0
128.00499987602234,0.984375,-0.00830078125,-0.0654296875,96.23666671911876,96.23500013351442,1.6665856043402982,-0.30517578125,0.06103515625,-0.1220703125
128.00999999046326,0.978515625,-0.0654296875,-0.06982421875,96.24166683355968,96.24000000953674,1.6668240229336106,0.0,0.0,0.6103515625
128.0149998664856,0.97705078125,-0.02978515625,-0.05810546875,96.24666670958202,96.24500012397766,1.666585604354509,0.0,0.0,-0.18310546875
128.0199999809265,0.99462890625,-0.0498046875,-0.0400390625,96.25166682402292,96.25,1.6668240229193998,0.06103515625,0.0,0.18310546875
128.02499985694885,1.00146484375,-0.0576171875,-0.0341796875,96.25666670004529,96.25500011444092,1.66658560436872,0.1220703125,0.0,-0.06103515625
128.02999997138977,1.01708984375,-0.01513671875,-0.01953125,96.2616668144862,96.25999999046326,1.6668240229478215,-0.06103515625,0.0,-0.42724609375
128.0349998474121,0.99853515625,-0.02880859375,-0.04541015625,96.26666669050852,96.26500010490416,1.666585604354509,-0.06103515625,0.0,-0.06103515625
128.03999996185303,1.01123046875,0.00830078125,-0.04638671875,96.27166680494943,96.26999998092651,1.6668240229193998,0.0,0.06103515625,-0.1220703125
128.04499983787537,0.99755859375,-0.041015625,-0.04345703125,96.2766666809718,96.27500009536742,1.6665856043829308,0.30517578125,0.18310546875,0.42724609375
128.04999995231628,0.98974609375,-0.03857421875,-0.0400390625,96.2816667954127,96.27999997138976,1.6668240229478215,0.1220703125,0.06103515625,0.30517578125
128.05499982833862,1.00341796875,-0.037109375,-0.0458984375,96.28666667143504,96.2850000858307,1.6665856043402982,-0.1220703125,0.06103515625,-0.3662109375
128.05999994277954,1.01171875,-0.04833984375,-0.05859375,96.29166678587596,96.289999961853,1.6668240229620324,0.06103515625,0.0,0.0
128.06499981880188,0.99658203125,-0.03515625,-0.06201171875,96.2966666618983,96.29500007629392,1.6665856043829308,-0.06103515625,0.0,0.1220703125
128.0699999332428,0.9755859375,-0.03515625,-0.03955078125,96.30166677633922,96.2999999523163,1.6668240229193998,0.1220703125,0.0,-0.30517578125
128.07499980926514,1.0107421875,-0.02587890625,-0.02392578125,96.30666665236156,96.30500006675722,1.6665856043402982,0.1220703125,0.0,-0.30517578125
128.07999992370603,0.986328125,-0.0234375,-0.0009765625,96.31166676680245,96.30999994277954,1.666824022905189,-0.244140625,-0.06103515625,-0.48828125
128.0849997997284,0.99951171875,-0.01171875,-0.015625,96.3166666428248,96.31500005722046,1.6665856043402982,-0.1220703125,0.06103515625,0.0
128.0899999141693,0.98388671875,-0.0419921875,-0.03857421875,96.32166675726572,96.32000017166138,1.6665856043402982,-0.06103515625,0.06103515625,0.30517578125
128.09499979019165,0.98486328125,-0.0029296875,-0.07275390625,96.32666663328808,96.32500004768372,1.66658560436872,-0.1220703125,0.0,-0.3662109375
128.09999990463257,0.97216796875,-0.05078125,-0.0595703125,96.331666747729,96.33000016212463,1.66658560436872,0.0,0.0,-0.30517578125
128.1049997806549,0.994140625,-0.04638671875,-0.0458984375,96.33666662375131,96.33500003814696,1.666585604354509,0.244140625,0.06103515625,0.244140625
128.10999989509585,0.994140625,-0.048828125,-0.037109375,96.34166673819227,96.34000015258788,1.6665856043971417,0.0,-0.06103515625,-0.244140625
128.11499977111816,1.013671875,-0.04248046875,-0.0283203125,96.34666661421458,96.34500002861022,1.66658560436872,-0.06103515625,-0.06103515625,-0.48828125
128.11999988555908,1.0009765625,-0.0224609375,-0.0419921875,96.3516667286555,96.35000014305112,1.6665856043829308,-0.1220703125,-0.06103515625,0.0
128.125,1.00146484375,-0.00439453125,-0.04248046875,96.35666684309642,96.3550000190735,1.6668240229193998,-0.06103515625,0.244140625,0.06103515625
128.12999987602234,0.99560546875,-0.0205078125,-0.02685546875,96.36166671911876,96.36000013351442,1.6665856043402982,0.0,0.0,0.30517578125
128.13499999046326,0.99169921875,-0.0146484375,-0.02978515625,96.36666683355968,96.36500000953674,1.6668240229336106,0.0,0.06103515625,-0.18310546875
128.1399998664856,1.00244140625,-0.0673828125,-0.03759765625,96.37166670958202,96.37000012397766,1.666585604354509,-0.06103515625,0.06103515625,0.79345703125
128.1449999809265,1.0,-0.0244140625,-0.05859375,96.37666682402292,96.375,1.6668240229193998,-0.1220703125,0.0,-0.48828125
128.14999985694885,1.0185546875,-0.0625,-0.06884765625,96.38166670004529,96.38000011444092,1.66658560436872,0.0,0.06103515625,0.244140625
128.15499997138977,0.98681640625,-0.0244140625,-0.06103515625,96.3866668144862,96.38499999046326,1.6668240229478215,0.0,-0.06103515625,-0.244140625
128.1599998474121,1.01123046875,-0.048828125,-0.0322265625,96.39166669050852,96.39000010490416,1.666585604354509,0.244140625,0.1220703125,-0.18310546875
128.16499996185303,0.99267578125,-0.02978515625,-0.0263671875,96.39666680494943,96.39499998092651,1.6668240229193998,0.244140625,0.06103515625,0.18310546875
128.16999983787537,1.00537109375,-0.015625,-0.01953125,96.4016666809718,96.40000009536742,1.6665856043829308,0.0,0.0,-0.6103515625
128.17499995231628,0.986328125,-0.01953125,-0.05322265625,96.4066667954127,96.40499997138976,1.6668240229478215,-0.244140625,0.0,-0.1220703125
128.17999982833862,0.98486328125,-0.02490234375,-0.0625,96.41166667143504,96.4100000858307,1.6665856043402982,0.06103515625,0.06103515625,0.244140625
128.18499994277954,0.9697265625,-0.05712890625,-0.064453125,96.41666678587596,96.414999961853,1.6668240229620324,0.1220703125,0.0,0.244140625
128.18999981880188,0.98193359375,-0.03173828125,-0.0458984375,96.4216666618983,96.42000007629392,1.6665856043829308,0.06103515625,0.06103515625,-0.3662109375
128.1949999332428,0.98583984375,-0.06103515625,-0.02490234375,96.42666677633922,96.4249999523163,1.6668240229193998,0.06103515625,0.18310546875,0.0
128.19999980926514,1.01220703125,-0.0498046875,-0.025390625,96.43166665236156,96.43000006675722,1.6665856043402982,-0.06103515625,0.0,0.0
128.20499992370603,1.00146484375,-0.00537109375,-0.04443359375,96.43666676680245,96.43499994277954,1.666824022905189,-0.18310546875,0.0,-0.244140625
128.2099997997284,0.99560546875,-0.02001953125,-0.04296875,96.4416666428248,96.44000005722046,1.6665856043402982,0.06103515625,0.0,-0.18310546875
128.2149999141693,0.9931640625,-0.017578125,-0.041015625,96.44666675726572,96.44500017166138,1.6665856043402982,0.1220703125,0.0,0.3662109375
128.21999979019165,0.99462890625,-0.03076171875,-0.03369140625,96.45166663328808,96.45000004768372,1.66658560436872,-0.06103515625,0.0,0.0
128.22499990463257,0.99267578125,-0.037109375,-0.04345703125,96.456666747729,96.45500016212463,1.66658560436872,0.0,0.0,0.18310546875
128.2299997806549,1.00341796875,-0.0380859375,-0.06298828125,96.46166662375131,96.46000003814696,1.666585604354509,0.0,0.0,0.18310546875
128.23499989509585,1.0078125,-0.03955078125,-0.07666015625,96.46666673819227,96.46500015258788,1.6665856043971417,0.0,0.0,-0.244140625
128.23999977111816,0.99658203125,-0.05517578125,-0.0615234375,96.47166661421458,96.47000002861022,1.66658560436872,0.0,0.0,0.3662109375
128.24499988555908,0.98046875,-0.025390625,-0.03515625,96.4766667286555,96.47500014305112,1.6665856043829308,0.06103515625,-0.1220703125,-0.244140625
128.25,1.01318359375,-0.03564453125,-0.01416015625,96.48166684309642,96.4800000190735,1.6668240229193998,0.06103515625,0.0,0.06103515625
128.25499987602234,1.00048828125,-0.00537109375,-0.0234375,96.48666671911876,96.48500013351442,1.6665856043402982,-0.06103515625,0.06103515625,-0.30517578125
128.25999999046326,0.98388671875,-0.01904296875,-0.046875,96.49166683355968,96.49000000953674,1.6668240229336106,-0.244140625,0.06103515625,0.1220703125
128.2649998664856,0.97802734375,-0.03955078125,-0.0615234375,96.49666670958202,96.49500012397766,1.666585604354509,-0.06103515625,0.18310546875,0.18310546875
128.2699999809265,0.98388671875,-0.04931640625,-0.0771484375,96.50166682402292,96.5,1.6668240229193998,0.1220703125,0.06103515625,0.42724609375
128.27499985694885,0.99072265625,-0.03125,-0.0576171875,96.50666670004529,96.50500011444092,1.66658560436872,0.06103515625,0.0,0.06103515625
128.27999997138977,0.99267578125,-0.06396484375,-0.04150390625,96.5116668144862,96.50999999046326,1.6668240229478215,0.0,-0.06103515625,-0.3662109375
128.2849998474121,1.0087890625,-0.029296875,-0.03173828125,96.51666669050852,96.51500010490416,1.666585604354509,0.0,0.06103515625,-0.3662109375
128.28999996185303,1.02197265625,-0.03564453125,-0.025390625,96.52166680494943,96.51999998092651,1.6668240229193998,-0.1220703125,0.0,-0.3662109375
128.29499983787537,0.99658203125,-0.01513671875,-0.03564453125,96.5266666809718,96.52500009536742,1.6665856043829308,0.0,-0.06103515625,0.0
128.29999995231628,0.994140625,-0.0068359375,-0.03076171875,96.5316667954127,96.52999997138976,1.6668240229478215,-0.1220703125,0.0,0.1220703125
128.30499982833862,0.99853515625,-0.02099609375,-0.02197265625,96.53666667143504,96.5350000858307,1.6665856043402982,0.06103515625,0.06103515625,0.1220703125
128.30999994277954,0.98828125,-0.01416015625,-0.0263671875,96.54166678587596,96.539999961853,1.6668240229620324,0.0,0.0,0.18310546875
128.31499981880188,1.0,-0.076171875,-0.03662109375,96.5466666618983,96.54500007629392,1.6665856043829308,-0.06103515625,0.0,0.48828125
128.3199999332428,1.00244140625,-0.0224609375,-0.056640625,96.55166677633922,96.5499999523163,1.6668240229193998,-0.244140625,-0.06103515625,-0.30517578125
128.32499980926514,0.994140625,-0.04052734375,-0.0625,96.55666665236156,96.55500006675722,1.6665856043402982,-0.244140625,-0.06103515625,-0.3662109375
128.32999992370603,1.0087890625,-0.03125,-0.05126953125,96.56166676680245,96.55999994277954,1.666824022905189,0.1220703125,-0.06103515625,-0.1220703125
128.3349997997284,1.001953125,-0.0244140625,-0.02001953125,96.5666666428248,96.56500005722046,1.6665856043402982,0.0,-0.06103515625,0.0
128.3399999141693,0.99560546875,-0.02294921875,-0.00927734375,96.57166675726572,96.57000017166138,1.6665856043402982,0.0,0.06103515625,-0.42724609375
128.34499979019165,1.00146484375,-0.0263671875,-0.0224609375,96.57666663328808,96.57500004768372,1.66658560436872,-0.1220703125,0.0,0.244140625
128.34999990463257,0.98779296875,-0.021484375,-0.0576171875,96.581666747729,96.58000016212463,1.66658560436872,-0.1220703125,0.0,0.30517578125
128.3549997806549,0.96923828125,-0.044921875,-0.06103515625,96.58666662375131,96.58500003814696,1.666585604354509,0.0,0.1220703125,0.1220703125
128.35999989509585,0.984375,-0.048828125,-0.04443359375,96.59166673819227,96.59000015258788,1.6665856043971417,0.1220703125,0.1220703125,-0.06103515625
128.36499977111816,0.990234375,-0.03662109375,-0.03369140625,96.59666661421458,96.59500002861022,1.66658560436872,0.0,0.0,0.1220703125
128.36999988555908,1.001953125,-0.05126953125,-0.03515625,96.6016667286555,96.60000014305112,1.6665856043829308,0.06103515625,0.06103515625,-0.18310546875
128.375,1.00634765625,-0.02490234375,-0.03369140625,96.60666684309642,96.6050000190735,1.6668240229193998,-0.1220703125,-0.06103515625,-0.42724609375
128.37999987602234,1.0029296875,-0.02001953125,-0.04833984375,96.61166671911876,96.61000013351442,1.6665856043402982,0.0,0.06103515625,0.0
128.38499999046326,1.001953125,0.0048828125,-0.0419921875,96.61666683355968,96.61500000953674,1.6668240229336106,-0.1220703125,0.0,-0.3662109375
128.3899998664856,1.0,-0.01220703125,-0.03662109375,96.62166670958202,96.62000012397766,1.666585604354509,0.1220703125,0.06103515625,0.3662109375
128.3949999809265,0.9970703125,-0.03173828125,-0.0380859375,96.62666682402292,96.625,1.6668240229193998,0.0,0.0,0.06103515625
128.39999985694885,0.99951171875,-0.04296875,-0.04736328125,96.63166670004529,96.63000011444092,1.66658560436872,0.0,0.0,0.0
128.40499997138977,1.013671875,-0.05712890625,-0.06396484375,96.6366668144862,96.63499999046326,1.6668240229478215,0.06103515625,0.0,0.06103515625
128.4099998474121,0.99658203125,-0.0478515625,-0.06396484375,96.64166669050852,96.64000010490416,1.666585604354509,-0.18310546875,-0.1220703125,-0.244140625
128.41499996185303,0.99462890625,-0.04345703125,-0.05029296875,96.64666680494943,96.64499998092651,1.6668240229193998,0.1220703125,-0.06103515625,-0.18310546875
128.41999983787537,0.98876953125,-0.0126953125,-0.021484375,96.6516666809718,96.65000009536742,1.6665856043829308,0.06103515625,-0.06103515625,-0.42724609375
128.42499995231628,1.00927734375,-0.04638671875,-0.01611328125,96.6566667954127,96.65499997138976,1.6668240229478215,0.244140625,0.0,-0.06103515625
128.42999982833862,0.99658203125,-0.0078125,-0.01806640625,96.66166667143504,96.6600000858307,1.6665856043402982,-0.06103515625,-0.06103515625,-0.06103515625
128.43499994277954,0.98828125,-0.0302734375,-0.04443359375,96.66666678587596,96.664999961853,1.6668240229620324,-0.1220703125,0.0,0.3662109375
128.43999981880188,0.97607421875,-0.01171875,-0.076171875,96.6716666618983,96.67000007629392,1.6665856043829308,0.0,0.06103515625,0.06103515625
128.4449999332428,0.986328125,-0.04638671875,-0.07861328125,96.67666677633922,96.6749999523163,1.6668240229193998,0.06103515625,0.0,0.42724609375
128.44999980926514,0.9921875,-0.0390625,-0.056640625,96.68166665236156,96.68000006675722,1.6665856043402982,0.06103515625,0.0,0.06103515625
128.45499992370603,0.98828125,-0.05615234375,-0.0380859375,96.68666676680245,96.68499994277954,1.666824022905189,0.0,0.0,-0.48828125
128.4599997997284,1.02294921875,-0.0390625,-0.03662109375,96.6916666428248,96.69000005722046,1.6665856043402982,0.0,-0.1220703125,-0.54931640625
128.4649999141693,1.0126953125,-0.0126953125,-0.0458984375,96.69666675726572,96.69500017166138,1.6665856043402982,-0.06103515625,0.0,0.0
128.46999979019165,0.99853515625,-0.00146484375,-0.0478515625,96.70166663328808,96.70000004768372,1.66658560436872,-0.1220703125,0.0,-0.244140625
128.47499990463257,0.98779296875,-0.0322265625,-0.0302734375,96.706666747729,96.70500016212463,1.66658560436872,0.0,0.1220703125,0.06103515625
128.4799997806549,0.9970703125,-0.017578125,-0.02880859375,96.71166662375131,96.71000003814696,1.666585604354509,0.1220703125,0.06103515625,0.06103515625
128.48499989509585,1.00537109375,-0.05322265625,-0.0361328125,96.71666673819227,96.71500015258788,1.6665856043971417,0.0,0.1220703125,0.42724609375
128.48999977111816,0.986328125,-0.0361328125,-0.052734375,96.72166661421458,96.72000002861022,1.66658560436872,0.0,0.06103515625,-0.30517578125
128.49499988555908,1.00341796875,-0.06591796875,-0.0615234375,96.7266667286555,96.72500014305112,1.6665856043829308,0.0,0.1220703125,0.30517578125
128.5,0.9931640625,-0.0302734375,-0.064453125,96.73166684309642,96.7300000190735,1.6668240229193998,0.0,0.0,0.0
128.50499987602234,1.00244140625,-0.0380859375,-0.0400390625,96.73666671911876,96.73500013351442,1.6665856043402982,0.1220703125,-0.1220703125,-0.42724609375
128.50999999046326,1.00048828125,-0.0146484375,-0.02197265625,96.74166683355968,96.74000000953674,1.6668240229336106,0.18310546875,0.0,-0.06103515625
128.5149998664856,0.99755859375,-0.0302734375,-0.0126953125,96.74666670958202,96.74500012397766,1.666585604354509,-0.1220703125,-0.1220703125,-0.48828125
128.5199999809265,0.98876953125,-0.0166015625,-0.021484375,96.75166682402292,96.75,1.6668240229193998,-0.30517578125,0.0,0.0
128.52499985694885,0.98583984375,-0.01025390625,-0.06005859375,96.75666670004529,96.75500011444092,1.66658560436872,-0.1220703125,0.0,0.0
128.52999997138977,0.98486328125,-0.05615234375,-0.05908203125,96.7616668144862,96.75999999046326,1.6668240229478215,0.0,0.0,0.3662109375
128.5349998474121,0.98681640625,-0.03125,-0.04638671875,96.76666669050852,96.76500010490416,1.666585604354509,0.06103515625,0.1220703125,0.18310546875
128.53999996185303,0.9912109375,-0.037109375,-0.0322265625,96.77166680494943,96.76999998092651,1.6668240229193998,0.0,0.0,-0.30517578125
128.54499983787537,1.00146484375,-0.0595703125,-0.02734375,96.7766666809718,96.77500009536742,1.6665856043829308,0.06103515625,0.0,-0.244140625
128.54999995231628,1.0087890625,-0.00830078125,-0.0439453125,96.7816667954127,96.77999997138976,1.6668240229478215,0.0,-0.06103515625,-0.244140625
128.55499982833862,1.00634765625,-0.005859375,-0.04541015625,96.78666667143504,96.7850000858307,1.6665856043402982,0.0,0.0,-0.3662109375
128.55999994277954,1.00390625,-0.017578125,-0.04345703125,96.79166678587596,96.789999961853,1.6668240229620324,0.1220703125,0.0,0.42724609375
128.56499981880188,0.99267578125,-0.03564453125,-0.0361328125,96.7966666618983,96.79500007629392,1.6665856043829308,0.0,0.0,0.244140625
128.5699999332428,0.9892578125,-0.04052734375,-0.0400390625,96.80166677633922,96.7999999523163,1.6668240229193998,0.0,0.1220703125,0.18310546875
128.57499980926514,0.99658203125,-0.03466796875,-0.0546875,96.80666665236156,96.80500006675722,1.6665856043402982,-0.244140625,0.18310546875,-0.18310546875
128.57999992370603,1.01416015625,-0.05859375,-0.068359375,96.81166676680245,96.80999994277954,1.666824022905189,0.0,0.0,0.0
128.5849997997284,1.0068359375,-0.029296875,-0.06884765625,96.8166666428248,96.81500005722046,1.6665856043402982,0.0,0.0,-0.18310546875
128.5899999141693,0.9716796875,-0.0302734375,-0.03466796875,96.82166675726572,96.82000017166138,1.6665856043402982,0.0,-0.1220703125,-0.6103515625
128.59499979019165,1.00634765625,-0.03857421875,-0.02197265625,96.82666663328808,96.82500004768372,1.66658560436872,0.244140625,0.0,0.0
128.59999990463257,0.99658203125,0.0048828125,-0.02001953125,96.831666747729,96.83000016212463,1.66658560436872,0.0,0.0,-0.06103515625
128.6049997806549,0.9892578125,-0.0322265625,-0.04931640625,96.83666662375131,96.83500003814696,1.666585604354509,-0.1220703125,0.06103515625,0.1220703125
128.60999989509585,0.97802734375,-0.00146484375,-0.07861328125,96.84166673819227,96.84000015258788,1.6665856043971417,-0.244140625,0.0,-0.30517578125
128.61499977111816,0.984375,-0.07958984375,-0.0810546875,96.84666661421458,96.84500002861022,1.66658560436872,0.06103515625,0.0,1.0986328125
128.61999988555908,0.982421875,-0.02783203125,-0.05615234375,96.8516667286555,96.85000014305112,1.6665856043829308,0.0,-0.1220703125,-0.06103515625
128.625,0.99609375,-0.05126953125,-0.04052734375,96.85666684309642,96.8550000190735,1.6668240229193998,0.0,0.0,-0.30517578125
128.62999987602234,1.017578125,-0.04248046875,-0.03369140625,96.86166671911876,96.86000013351442,1.6665856043402982,0.0,0.0,-0.30517578125
128.63499999046326,1.013671875,-0.0126953125,-0.0419921875,96.86666683355968,96.86500000953674,1.6668240229336106,0.0,0.0,-0.30517578125
128.6399998664856,1.00048828125,-0.00537109375,-0.04296875,96.87166670958202,96.87000012397766,1.666585604354509,0.0,0.06103515625,-0.18310546875
128.6449999809265,0.9951171875,-0.0087890625,-0.03955078125,96.87666682402292,96.875,1.6668240229193998,0.1220703125,0.06103515625,0.0
128.64999985694885,0.9912109375,-0.01611328125,-0.03125,96.88166670004529,96.88000011444092,1.66658560436872,0.0,0.18310546875,0.0
128.65499997138977,1.0029296875,-0.033203125,-0.03466796875,96.8866668144862,96.88499999046326,1.6668240229478215,0.1220703125,0.06103515625,0.1220703125
128.6599998474121,0.994140625,-0.0517578125,-0.04345703125,96.89166669050852,96.89000010490416,1.666585604354509,-0.18310546875,0.0,0.30517578125
128.66499996185303,1.00830078125,-0.04931640625,-0.06005859375,96.89666680494943,96.89499998092651,1.6668240229193998,0.06103515625,0.18310546875,0.18310546875
128.66999983787537,0.9951171875,-0.04150390625,-0.0595703125,96.9016666809718,96.90000009536742,1.6665856043829308,-0.06103515625,-0.06103515625,-0.1220703125
128.67499995231628,1.001953125,-0.0458984375,-0.0458984375,96.9066667954127,96.90499997138976,1.6668240229478215,0.1220703125,0.0,-0.54931640625
128.67999982833862,0.99267578125,-0.015625,-0.03271484375,96.91166667143504,96.9100000858307,1.6665856043402982,0.18310546875,-0.06103515625,0.0
128.68499994277954,0.99365234375,-0.02978515625,-0.0166015625,96.91666678587596,96.914999961853,1.6668240229620324,-0.1220703125,0.0,-0.30517578125
128.68999981880188,0.9990234375,-0.01953125,-0.0185546875,96.9216666618983,96.92000007629392,1.6665856043829308,0.0,0.0,0.1220703125
128.6949999332428,0.98779296875,-0.02001953125,-0.05078125,96.92666677633922,96.9249999523163,1.6668240229193998,-0.06103515625,0.06103515625,0.1220703125
128.69999980926514,0.9794921875,-0.0556640625,-0.0634765625,96.93166665236156,96.93000006675722,1.6665856043402982,0.0,0.06103515625,0.48828125
128.70499992370603,0.98046875,-0.03125,-0.04833984375,96.93666676680245,96.93499994277954,1.666824022905189,0.1220703125,0.0,-0.244140625
128.7099997997284,0.98486328125,-0.0576171875,-0.02783203125,96.9416666428248,96.94000005722046,1.6665856043402982,0.1220703125,0.0,0.18310546875
128.7149999141693,1.0009765625,-0.0458984375,-0.02490234375,96.94666675726572,96.94500017166138,1.6665856043402982,0.06103515625,0.06103515625,-0.244140625
128.71999979019165,1.01220703125,-0.0283203125,-0.0234375,96.95166663328808,96.95000004768372,1.66658560436872,-0.1220703125,0.0,-0.244140625
128.72499990463257,1.0078125,-0.01171875,-0.04833984375,96.956666747729,96.95500016212463,1.66658560436872,-0.1220703125,0.0,-0.1220703125
128.7299997806549,0.99755859375,-0.0078125,-0.04541015625,96.96166662375131,96.96000003814696,1.666585604354509,0.0,-0.06103515625,0.0
128.73499989509585,1.005859375,-0.02978515625,-0.033203125,96.96666673819227,96.96500015258788,1.6665856043971417,0.0,0.0,0.18310546875
128.73999977111816,1.00341796875,-0.0302734375,-0.03759765625,96.97166661421458,96.97000002861022,1.66658560436872,0.0,0.0,0.3662109375
128.74499988555908,0.99951171875,-0.033203125,-0.0458984375,96.9766667286555,96.97500014305112,1.6665856043829308,0.0,-0.06103515625,-0.1220703125
128.75,1.00927734375,-0.0419921875,-0.07080078125,96.98166684309642,96.9800000190735,1.6668240229193998,-0.18310546875,-0.1220703125,-0.244140625
128.75499987602234,1.0,-0.04736328125,-0.06298828125,96.98666671911876,96.98500013351442,1.6665856043402982,-0.1220703125,0.0,0.0
128.75999999046326,0.97216796875,-0.03076171875,-0.0390625,96.99166683355968,96.99000000953674,1.6668240229336106,0.0,-0.06103515625,-0.18310546875
128.7649998664856,1.01123046875,-0.017578125,-0.01123046875,96.99666670958202,96.99500012397766,1.666585604354509,0.06103515625,0.0,-0.3662109375
128.7699999809265,1.00341796875,-0.033203125,-0.00537109375,97.00166682402292,97.0,1.6668240229193998,0.0,-0.06103515625,-0.1220703125
128.77499985694885,1.0029296875,-0.01806640625,-0.02587890625,97.00666670004529,97.00500011444092,1.66658560436872,0.0,0.06103515625,0.244140625
128.77999997138977,0.98193359375,-0.02685546875,-0.052734375,97.0116668144862,97.00999999046326,1.6668240229478215,0.0,0.0,0.0
128.7849998474121,0.98095703125,-0.02734375,-0.07421875,97.01666669050852,97.01500010490416,1.666585604354509,-0.30517578125,-0.06103515625,-0.06103515625
128.78999996185303,0.9833984375,-0.06298828125,-0.07666015625,97.02166680494943,97.01999998092651,1.6668240229193998,0.1220703125,0.0,0.79345703125
128.79499983787537,0.98779296875,-0.0244140625,-0.05859375,97.0266666809718,97.02500009536742,1.6665856043829308,0.0,-0.06103515625,-0.244140625
128.79999995231628,0.99169921875,-0.0556640625,-0.03466796875,97.0316667954127,97.02999997138976,1.6668240229478215,0.0,-0.06103515625,-0.48828125
128.80499982833862,1.00537109375,-0.03466796875,-0.029296875,97.03666667143504,97.0350000858307,1.6665856043402982,-0.06103515625,0.06103515625,-0.3662109375
128.80999994277954,1.0078125,-0.02392578125,-0.037109375,97.04166678587596,97.039999961853,1.6668240229620324,-0.1220703125,-0.1220703125,-0.06103515625
128.81499981880188,0.9931640625,-0.01708984375,-0.03857421875,97.0466666618983,97.04500007629392,1.6665856043829308,0.0,0.06103515625,0.0
128.8199999332428,0.990234375,-0.00390625,-0.037109375,97.05166677633922,97.0499999523163,1.6668240229193998,0.06103515625,0.0,0.1220703125
128.82499980926514,0.9921875,-0.00634765625,-0.0283203125,97.05666665236156,97.05500006675722,1.6665856043402982,-0.1220703125,0.0,0.244140625
128.82999992370603,1.00244140625,-0.068359375,-0.03271484375,97.06166676680245,97.05999994277954,1.666824022905189,0.06103515625,0.06103515625,0.3662109375
128.8349997997284,0.9970703125,-0.0166015625,-0.0556640625,97.0666666428248,97.06500005722046,1.6665856043402982,-0.18310546875,0.06103515625,-0.3662109375
128.8399999141693,1.00830078125,-0.08251953125,-0.06787109375,97.07166675726572,97.07000017166138,1.6665856043402982,-0.06103515625,0.18310546875,0.54931640625
128.84499979019165,0.99755859375,-0.0126953125,-0.06787109375,97.07666663328808,97.07500004768372,1.66658560436872,0.0,0.0,-0.30517578125
128.84999990463257,1.013671875,-0.04345703125,-0.03369140625,97.081666747729,97.08000016212463,1.66658560436872,0.30517578125,-0.06103515625,-0.18310546875
128.8549997806549,0.9970703125,-0.02001953125,-0.02392578125,97.08666662375131,97.08500003814696,1.666585604354509,0.18310546875,0.06103515625,-0.06103515625
128.85999989509585,0.998046875,-0.0166015625,-0.01806640625,97.09166673819227,97.09000015258788,1.6665856043971417,-0.06103515625,-0.06103515625,-0.54931640625
128.86499977111816,0.9990234375,-0.03076171875,-0.03955078125,97.09666661421458,97.09500002861022,1.66658560436872,-0.244140625,0.06103515625,0.0
128.86999988555908,0.99609375,-0.015625,-0.05224609375,97.1016667286555,97.10000014305112,1.6665856043829308,-0.06103515625,0.18310546875,0.42724609375
128.875,0.9716796875,-0.0517578125,-0.064453125,97.10666684309642,97.1050000190735,1.6668240229193998,0.18310546875,0.06103515625,0.3662109375
128.87999987602234,0.98291015625,-0.04052734375,-0.04248046875,97.11166671911876,97.11000013351442,1.6665856043402982,0.06103515625,0.06103515625,-0.18310546875
128.88499999046326,0.9892578125,-0.04638671875,-0.0322265625,97.11666683355968,97.11500000953674,1.6668240229336106,0.0,0.0,0.0
128.8899998664856,1.0107421875,-0.05419921875,-0.03662109375,97.12166670958202,97.12000012397766,1.666585604354509,0.0,0.0,-0.06103515625
128.8949999809265,1.00634765625,-0.0146484375,-0.037109375,97.12666682402292,97.125,1.6668240229193998,-0.18310546875,0.0,-0.42724609375
128.89999985694885,0.998046875,-0.0146484375,-0.03466796875,97.13166670004529,97.13000011444092,1.66658560436872,0.0,-0.06103515625,-0.42724609375
128.90499997138977,0.9912109375,-0.013671875,-0.03271484375,97.1366668144862,97.13499999046326,1.6668240229478215,0.244140625,0.0,0.54931640625
128.9099998474121,0.99072265625,-0.03125,-0.02880859375,97.14166669050852,97.14000010490416,1.666585604354509,-0.1220703125,0.0,0.0
128.91499996185303,0.99169921875,-0.04833984375,-0.0419921875,97.14666680494943,97.14499998092651,1.6668240229193998,0.0,0.0,0.18310546875
128.91999983787537,1.0,-0.03515625,-0.06103515625,97.1516666809718,97.15000009536742,1.6665856043829308,-0.1220703125,0.244140625,0.06103515625
128.92499995231628,1.00927734375,-0.06201171875,-0.06591796875,97.1566667954127,97.15499997138976,1.6668240229478215,0.06103515625,-0.06103515625,-0.06103515625
128.92999982833862,0.99560546875,-0.03369140625,-0.06298828125,97.16166667143504,97.1600000858307,1.6665856043402982,0.0,0.0,0.0
128.93499994277954,0.98974609375,-0.03173828125,-0.0341796875,97.16666678587596,97.164999961853,1.6668240229620324,0.0,0.06103515625,-0.42724609375
128.93999981880188,1.00830078125,-0.021484375,-0.0283203125,97.1716666618983,97.17000007629392,1.6665856043829308,0.1220703125,-0.06103515625,-0.244140625
128.9449999332428,0.9921875,-0.025390625,-0.013671875,97.17666677633922,97.1749999523163,1.6668240229193998,-0.30517578125,0.0,-0.42724609375
128.94999980926514,0.99267578125,-0.0283203125,-0.04052734375,97.18166665236156,97.18000006675722,1.6665856043402982,-0.06103515625,0.0,0.18310546875
128.95499992370603,0.97314453125,-0.017578125,-0.0634765625,97.18666676680245,97.18499994277954,1.666824022905189,-0.18310546875,0.0,-0.1220703125
128.9599997997284,0.9814453125,-0.0537109375,-0.0791015625,97.1916666428248,97.19000005722046,1.6665856043402982,0.0,-0.06103515625,0.54931640625
128.9649999141693,0.98828125,-0.03759765625,-0.05712890625,97.19666675726572,97.19500017166138,1.6665856043402982,0.06103515625,-0.06103515625,-0.18310546875
128.96999979019165,0.994140625,-0.04248046875,-0.04931640625,97.20166663328808,97.20000004768372,1.66658560436872,0.1220703125,0.0,0.18310546875
128.97499990463257,1.01171875,-0.0478515625,-0.02197265625,97.206666747729,97.20500016212463,1.66658560436872,0.0,0.1220703125,-0.1220703125
128.9799997806549,1.021484375,-0.00732421875,-0.02880859375,97.21166662375131,97.21000003814696,1.666585604354509,0.0,0.0,0.0
128.98499989509585,1.00146484375,-0.01806640625,-0.04345703125,97.21666673819227,97.21500015258788,1.6665856043971417,-0.1220703125,0.0,-0.244140625
128.98999977111816,0.9892578125,-0.00244140625,-0.0458984375,97.22166661421458,97.22000002861022,1.66658560436872,0.0,0.0,0.18310546875
128.99499988555908,0.9970703125,-0.03125,-0.03173828125,97.2266667286555,97.22500014305112,1.6665856043829308,0.0,0.1220703125,0.0
129.0,0.98779296875,-0.0146484375,-0.02978515625,97.23166684309642,97.2300000190735,1.6668240229193998,0.0,0.06103515625,-0.06103515625
129.00499987602234,0.99853515625,-0.072265625,-0.0361328125,97.23666671911876,97.23500013351442,1.6665856043402982,0.0,0.1220703125,0.244140625
129.00999999046326,0.99609375,-0.02685546875,-0.06396484375,97.24166683355968,97.24000000953674,1.6668240229336106,0.0,0.0,-0.18310546875
129.0149998664856,1.00927734375,-0.06689453125,-0.0703125,97.24666670958202,97.24500012397766,1.666585604354509,-0.1220703125,0.0,-0.06103515625
129.0199999809265,0.9912109375,-0.021484375,-0.06689453125,97.25166682402292,97.25,1.6668240229193998,0.18310546875,0.0,0.0
129.02499985694885,0.994140625,-0.01220703125,-0.025390625,97.25666670004529,97.25500011444092,1.66658560436872,0.0,0.0,-0.1220703125
129.02999997138977,1.001953125,-0.0341796875,-0.01123046875,97.2616668144862,97.25999999046326,1.6668240229478215,0.0,0.0,-0.1220703125
129.0349998474121,0.99365234375,-0.0166015625,-0.0263671875,97.26666669050852,97.26500010490416,1.666585604354509,-0.244140625,0.06103515625,-0.1220703125
129.03999996185303,0.98779296875,-0.025390625,-0.04833984375,97.27166680494943,97.26999998092651,1.6668240229193998,-0.18310546875,0.0,0.0
129.04499983787537,0.97998046875,-0.02880859375,-0.06201171875,97.2766666809718,97.27500009536742,1.6665856043829308,0.0,0.1220703125,0.244140625
129.04999995231628,0.982421875,-0.04638671875,-0.0478515625,97.2816667954127,97.27999997138976,1.6668240229478215,0.06103515625,-0.06103515625,0.0
129.05499982833862,0.99365234375,-0.03515625,-0.0322265625,97.28666667143504,97.2850000858307,1.6665856043402982,0.1220703125,0.06103515625,0.1220703125
129.05999994277954,0.99853515625,-0.0498046875,-0.029296875,97.29166678587596,97.289999961853,1.6668240229620324,0.06103515625,0.0,-0.30517578125
129.06499981880188,1.01123046875,-0.03173828125,-0.0205078125,97.2966666618983,97.29500007629392,1.6665856043829308,-0.1220703125,0.0,-0.42724609375
129.0699999332428,1.01123046875,-0.01806640625,-0.041015625,97.30166677633922,97.2999999523163,1.6668240229193998,-0.06103515625,-0.06103515625,0.0
129.07499980926514,1.00732421875,0.00537109375,-0.0439453125,97.30666665236156,97.30500006675722,1.6665856043402982,0.0,0.0,-0.3662109375
129.07999992370603,0.9931640625,-0.0244140625,-0.0419921875,97.31166676680245,97.30999994277954,1.666824022905189,0.18310546875,0.06103515625,0.42724609375
129.0849997997284,0.99658203125,-0.0234375,-0.04296875,97.3166666428248,97.31500005722046,1.6665856043402982,-0.18310546875,0.0,0.0
129.0899999141693,0.986328125,-0.05419921875,-0.0419921875,97.32166675726572,97.32000017166138,1.6665856043402982,0.0,0.0,0.1220703125
129.09499979019165,1.00537109375,-0.03564453125,-0.05615234375,97.32666663328806,97.32500004768372,1.6665856043402982,0.0,-0.06103515625,-0.1220703125
129.09999990463257,0.994140625,-0.02783203125,-0.06689453125,97.33166674772896,97.33000016212463,1.6665856043260874,0.0,0.0,-0.06103515625
129.1049997806549,0.9755859375,-0.03076171875,-0.0322265625,97.33666662375131,97.33500003814696,1.666585604354509,0.06103515625,-0.06103515625,-0.6103515625
129.10999989509585,1.01171875,-0.04736328125,-0.02197265625,97.34166673819226,97.34000015258788,1.6665856043829308,0.30517578125,0.0,0.18310546875
129.11499977111816,0.9833984375,-0.0009765625,-0.015625,97.34666661421456,97.34500002861024,1.6665856043118765,-0.244140625,0.0,-0.54931640625
129.11999988555908,0.99267578125,-0.02392578125,-0.03466796875,97.35166672865547,97.35000014305116,1.6665856043118765,-0.06103515625,0.0,0.06103515625
129.125,0.98583984375,-0.00146484375,-0.0791015625,97.3566668430964,97.35500001907349,1.6668240229193998,0.0,0.06103515625,-0.06103515625
129.12999987602234,0.9736328125,-0.0732421875,-0.07958984375,97.36166671911874,97.3600001335144,1.6665856043402982,0.06103515625,0.0,0.6103515625
129.13499999046326,0.986328125,-0.0341796875,-0.0576171875,97.36666683355966,97.36500000953674,1.6668240229193998,0.1220703125,0.0,0.0
129.1399998664856,0.99951171875,-0.0712890625,-0.0419921875,97.371666709582,97.37000012397766,1.6665856043402982,0.1220703125,-0.06103515625,-0.06103515625
129.1449999809265,1.01611328125,-0.04443359375,-0.037109375,97.37666682402292,97.375,1.6668240229193998,0.06103515625,0.06103515625,-0.06103515625
129.14999985694885,1.0224609375,-0.0166015625,-0.03857421875,97.38166670004526,97.38000011444092,1.6665856043402982,-0.06103515625,0.0,-0.54931640625
129.15499997138977,1.00146484375,-0.01025390625,-0.04052734375,97.38666681448618,97.38499999046326,1.6668240229193998,-0.1220703125,0.06103515625,-0.1220703125
129.1599998474121,0.9951171875,0.0,-0.03564453125,97.39166669050852,97.39000010490416,1.666585604354509,0.0,0.1220703125,0.18310546875
129.16499996185303,0.990234375,-0.0263671875,-0.02294921875,97.39666680494943,97.39499998092651,1.6668240229193998,0.1220703125,0.06103515625,0.18310546875
129.16999983787537,0.99609375,-0.0048828125,-0.029296875,97.40166668097176,97.4000000953674,1.666585604354509,0.0,0.18310546875,-0.1220703125
129.17499995231628,0.9921875,-0.0458984375,-0.0400390625,97.40666679541268,97.40499997138976,1.6668240229193998,-0.18310546875,0.0,0.06103515625
129.17999982833862,1.0087890625,-0.0478515625,-0.0546875,97.41166667143504,97.41000008583067,1.66658560436872,0.06103515625,0.0,0.0
129.18499994277954,0.9990234375,-0.04443359375,-0.05517578125,97.41666678587596,97.41499996185304,1.6668240229193998,-0.06103515625,-0.06103515625,0.0
129.18999981880188,0.9970703125,-0.05078125,-0.0478515625,97.42166666189829,97.42000007629396,1.6665856043260874,0.244140625,0.0,0.1220703125
129.1949999332428,1.001953125,-0.02001953125,-0.0244140625,97.4266667763392,97.42499995231628,1.6668240229193998,0.06103515625,-0.06103515625,-0.3662109375
129.19999980926514,0.99755859375,-0.03173828125,-0.01611328125,97.43166665236154,97.43000006675724,1.6665856042976657,0.06103515625,0.0,0.0
129.20499992370603,0.99853515625,-0.02001953125,-0.015625,97.43666676680245,97.43499994277954,1.666824022905189,0.06103515625,-0.06103515625,0.0
129.2099997997284,0.99169921875,-0.01708984375,-0.04052734375,97.4416666428248,97.44000005722046,1.6665856043402982,-0.244140625,-0.06103515625,-0.1220703125
129.2149999141693,0.98095703125,-0.03173828125,-0.05712890625,97.44666675726572,97.44500017166138,1.6665856043402982,-0.1220703125,0.0,0.18310546875
129.21999979019165,0.97314453125,-0.04638671875,-0.064453125,97.45166663328806,97.45000004768372,1.6665856043402982,0.0,0.0,0.54931640625
129.22499990463257,0.98974609375,-0.03564453125,-0.04931640625,97.45666674772896,97.45500016212463,1.6665856043260874,0.06103515625,0.06103515625,0.18310546875
129.2299997806549,0.9833984375,-0.0576171875,-0.02978515625,97.46166662375131,97.46000003814696,1.666585604354509,0.0,0.0,-0.18310546875
129.23499989509585,1.0087890625,-0.033203125,-0.02490234375,97.46666673819226,97.46500015258788,1.6665856043829308,0.0,0.0,-0.3662109375
129.23999977111816,1.01416015625,-0.03173828125,-0.03955078125,97.47166661421456,97.47000002861024,1.6665856043118765,0.06103515625,0.06103515625,0.06103515625
129.24499988555908,1.00439453125,-0.00146484375,-0.05810546875,97.47666672865547,97.47500014305116,1.6665856043118765,-0.18310546875,-0.06103515625,-0.42724609375
129.25,0.99560546875,-0.02880859375,-0.04150390625,97.4816668430964,97.48000001907349,1.6668240229193998,0.0,0.0,0.18310546875
129.25499987602234,1.00634765625,-0.01953125,-0.04833984375,97.48666671911874,97.4850001335144,1.6665856043402982,0.06103515625,0.0,0.1220703125
129.25999999046326,0.9970703125,-0.0439453125,-0.04736328125,97.49166683355966,97.49000000953674,1.6668240229193998,-0.1220703125,0.0,0.0
129.2649998664856,1.00341796875,-0.04638671875,-0.05859375,97.496666709582,97.49500012397766,1.6665856043402982,0.0,0.0,0.0
129.2699999809265,1.0068359375,-0.04541015625,-0.07080078125,97.50166682402292,97.5,1.6668240229193998,0.06103515625,0.0,0.0
129.27499985694885,0.99169921875,-0.03955078125,-0.06103515625,97.50666670004526,97.50500011444092,1.6665856043402982,0.1220703125,0.06103515625,-0.06103515625
129.27999997138977,0.9921875,-0.0244140625,-0.03076171875,97.51166681448618,97.50999999046326,1.6668240229193998,0.1220703125,-0.1220703125,-0.67138671875
129.2849998474121,1.0068359375,-0.0205078125,-0.01611328125,97.51666669050852,97.51500010490416,1.666585604354509,0.0,-0.1220703125,0.06103515625
129.28999996185303,0.9853515625,-0.02001953125,-0.0029296875,97.52166680494943,97.51999998092651,1.6668240229193998,-0.18310546875,0.0,-0.30517578125
129.29499983787537,0.99609375,-0.01025390625,-0.021484375,97.52666668097176,97.5250000953674,1.666585604354509,-0.1220703125,0.0,0.244140625
129.29999995231628,0.982421875,-0.04638671875,-0.06201171875,97.53166679541268,97.52999997138976,1.6668240229193998,-0.06103515625,0.06103515625,0.48828125
129.30499982833862,0.984375,-0.033203125,-0.0810546875,97.53666667143504,97.53500008583067,1.66658560436872,0.1220703125,0.06103515625,0.3662109375
129.30999994277954,0.98046875,-0.04638671875,-0.0546875,97.54166678587596,97.53999996185304,1.6668240229193998,-0.06103515625,0.0,-0.48828125
129.31499981880188,0.99560546875,-0.0625,-0.0458984375,97.54666666189829,97.54500007629396,1.6665856043260874,0.244140625,0.0,0.48828125
129.3199999332428,1.0,-0.04150390625,-0.0361328125,97.5516667763392,97.54999995231628,1.6668240229193998,0.0,0.0,-0.244140625
129.32499980926514,1.01171875,-0.03466796875,-0.03271484375,97.55666665236154,97.55500006675724,1.6665856042976657,-0.1220703125,0.0,-0.06103515625
129.32999992370603,0.99853515625,-0.00927734375,-0.03759765625,97.56166676680245,97.55999994277954,1.666824022905189,0.06103515625,-0.06103515625,-0.18310546875
129.3349997997284,0.98486328125,-0.005859375,-0.02880859375,97.5666666428248,97.56500005722046,1.6665856043402982,-0.06103515625,0.0,0.18310546875
129.3399999141693,0.99169921875,-0.02587890625,-0.025390625,97.57166675726572,97.57000017166138,1.6665856043402982,0.0,0.1220703125,0.0
129.34499979019165,0.9892578125,-0.01904296875,-0.037109375,97.57666663328806,97.57500004768372,1.6665856043402982,0.0,0.18310546875,0.18310546875
129.34999990463257,1.00341796875,-0.072265625,-0.048828125,97.58166674772896,97.58000016212463,1.6665856043260874,-0.18310546875,0.06103515625,0.1220703125
129.3549997806549,0.99951171875,-0.01953125,-0.07080078125,97.58666662375131,97.58500003814696,1.666585604354509,-0.18310546875,0.0,-0.1220703125
129.35999989509585,1.0,-0.06689453125,-0.06982421875,97.59166673819226,97.59000015258788,1.6665856043829308,0.0,-0.06103515625,0.1220703125
129.36499977111816,0.99658203125,-0.01416015625,-0.05908203125,97.59666661421456,97.59500002861024,1.6665856043118765,0.0,0.06103515625,-0.30517578125
129.36999988555908,1.00927734375,-0.0341796875,-0.025390625,97.60166672865547,97.60000014305116,1.6665856043118765,0.1220703125,0.0,-0.1220703125
129.375,0.9921875,-0.02685546875,-0.013671875,97.6066668430964,97.60500001907349,1.6668240229193998,-0.06103515625,-0.1220703125,-0.79345703125
129.37999987602234,1.00439453125,-0.02001953125,-0.0205078125,97.61166671911874,97.6100001335144,1.6665856043402982,-0.1220703125,0.06103515625,0.06103515625
129.38499999046326,0.998046875,-0.029296875,-0.04833984375,97.61666683355966,97.61500000953674,1.6668240229193998,-0.1220703125,0.06103515625,-0.06103515625
129.3899998664856,0.98046875,-0.02734375,-0.06201171875,97.621666709582,97.62000012397766,1.6665856043402982,0.06103515625,0.06103515625,0.1220703125
129.3949999809265,0.96533203125,-0.0546875,-0.05322265625,97.62666682402292,97.625,1.6668240229193998,0.06103515625,0.0,0.244140625
129.39999985694885,0.99267578125,-0.04248046875,-0.02685546875,97.63166670004526,97.63000011444092,1.6665856043402982,0.06103515625,0.0,0.1220703125
129.40499997138977,0.99560546875,-0.04638671875,-0.02685546875,97.63666681448618,97.63499999046326,1.6668240229193998,0.244140625,0.0,0.0
129.4099998474121,1.00390625,-0.02978515625,-0.03271484375,97.64166669050852,97.64000010490416,1.666585604354509,-0.1220703125,-0.06103515625,-0.48828125
129.41499996185303,1.00341796875,-0.01953125,-0.048828125,97.64666680494943,97.64499998092651,1.6668240229193998,0.06103515625,0.06103515625,0.0
129.41999983787537,0.998046875,0.00341796875,-0.03466796875,97.65166668097176,97.6500000953674,1.666585604354509,0.0,-0.06103515625,-0.244140625
129.42499995231628,0.99658203125,-0.03173828125,-0.021484375,97.65666679541268,97.65499997138976,1.6668240229193998,0.1220703125,0.0,0.48828125
129.42999982833862,0.9921875,-0.0341796875,-0.03173828125,97.66166667143504,97.66000008583067,1.66658560436872,-0.1220703125,-0.06103515625,0.30517578125
129.43499994277954,1.00146484375,-0.0546875,-0.04052734375,97.66666678587596,97.66499996185304,1.6668240229193998,0.0,0.0,0.18310546875
129.43999981880188,1.00439453125,-0.02880859375,-0.0595703125,97.67166666189829,97.67000007629396,1.6665856043260874,-0.06103515625,0.0,-0.06103515625
129.4449999332428,1.0048828125,-0.06787109375,-0.06103515625,97.6766667763392,97.67499995231628,1.6668240229193998,0.0,-0.06103515625,-0.06103515625
129.44999980926514,0.99365234375,-0.03564453125,-0.04150390625,97.68166665236154,97.68000006675724,1.6665856042976657,0.1220703125,-0.06103515625,-0.244140625
129.45499992370603,0.99267578125,-0.0205078125,-0.02001953125,97.68666676680245,97.68499994277954,1.666824022905189,0.0,-0.1220703125,-0.54931640625
129.4599997997284,1.0126953125,-0.041015625,-0.021484375,97.6916666428248,97.69000005722046,1.6665856043402982,0.30517578125,0.06103515625,0.1220703125
129.4649999141693,0.9912109375,-0.00732421875,-0.02490234375,97.69666675726572,97.69500017166138,1.6665856043402982,0.0,0.06103515625,-0.30517578125
129.46999979019165,0.994140625,-0.01904296875,-0.04931640625,97.70166663328806,97.70000004768372,1.6665856043402982,-0.06103515625,-0.06103515625,-0.06103515625
129.47499990463257,0.98388671875,-0.02490234375,-0.0771484375,97.70666674772896,97.70500016212463,1.6665856043260874,0.0,0.0,0.0
129.4799997806549,0.9794921875,-0.056640625,-0.0703125,97.71166662375131,97.71000003814696,1.666585604354509,0.0,0.0,0.3662109375
129.48499989509585,0.9931640625,-0.0341796875,-0.05615234375,97.71666673819226,97.71500015258788,1.6665856043829308,0.0,0.0,-0.06103515625
129.48999977111816,0.99462890625,-0.05859375,-0.03955078125,97.72166661421456,97.72000002861024,1.6665856043118765,0.0,-0.1220703125,-0.244140625
129.49499988555908,1.02001953125,-0.03955078125,-0.03125,97.72666672865547,97.72500014305116,1.6665856043118765,0.06103515625,0.0,-0.42724609375
129.5,1.01171875,-0.0107421875,-0.03515625,97.7316668430964,97.73000001907349,1.6668240229193998,0.0,-0.06103515625,-0.06103515625
129.50499987602234,0.99609375,-0.00439453125,-0.0439453125,97.73666671911874,97.7350001335144,1.6665856043402982,-0.06103515625,0.0,-0.48828125
129.50999999046326,0.984375,-0.0107421875,-0.03955078125,97.74166683355966,97.74000000953674,1.6668240229193998,0.0,0.06103515625,0.3662109375
129.5149998664856,0.98828125,-0.0166015625,-0.03076171875,97.746666709582,97.74500012397766,1.6665856043402982,-0.06103515625,0.06103515625,-0.18310546875
129.5199999809265,0.994140625,-0.044921875,-0.0283203125,97.75166682402292,97.75,1.6668240229193998,0.0,0.1220703125,0.3662109375
129.52499985694885,0.99169921875,-0.025390625,-0.056640625,97.75666670004526,97.75500011444092,1.6665856043402982,-0.06103515625,0.0,-0.3662109375
129.52999997138977,1.00830078125,-0.06494140625,-0.06396484375,97.76166681448618,97.75999999046326,1.6668240229193998,-0.1220703125,0.0,0.0
129.5349998474121,0.99072265625,-0.0224609375,-0.0673828125,97.76666669050852,97.76500010490416,1.666585604354509,-0.06103515625,0.0,-0.18310546875
129.53999996185303,0.9990234375,-0.05078125,-0.044921875,97.77166680494943,97.76999998092651,1.6668240229193998,0.06103515625,-0.06103515625,-0.3662109375
129.54499983787537,1.0009765625,-0.0087890625,-0.02197265625,97.77666668097176,97.7750000953674,1.666585604354509,-0.06103515625,-0.06103515625,-0.244140625
129.54999995231628,0.9892578125,-0.03271484375,-0.01171875,97.78166679541268,97.77999997138976,1.6668240229193998,-0.1220703125,0.0,0.0
129.55499982833862,1.0009765625,-0.02685546875,-0.02587890625,97.78666667143504,97.78500008583067,1.66658560436872,-0.06103515625,-0.06103515625,0.18310546875
129.55999994277954,0.9873046875,-0.01953125,-0.05615234375,97.79166678587596,97.78999996185304,1.6668240229193998,-0.1220703125,0.0,0.0
129.56499981880188,0.98828125,-0.025390625,-0.0625,97.79666666189829,97.79500007629396,1.6665856043260874,0.0,0.0,0.30517578125
129.5699999332428,0.978515625,-0.04931640625,-0.05712890625,97.8016667763392,97.79999995231628,1.6668240229193998,0.244140625,0.0,0.0
129.57499980926514,0.98681640625,-0.03759765625,-0.03173828125,97.80666665236154,97.80500006675724,1.6665856042976657,0.1220703125,0.0,0.1220703125
129.57999992370603,1.0048828125,-0.06005859375,-0.029296875,97.81166676680245,97.80999994277954,1.666824022905189,0.0,0.0,-0.3662109375
129.5849997997284,1.01025390625,-0.01904296875,-0.0361328125,97.8166666428248,97.81500005722046,1.6665856043402982,-0.06103515625,0.06103515625,-0.48828125
129.5899999141693,1.00537109375,-0.01806640625,-0.04150390625,97.82166675726572,97.82000017166138,1.6665856043402982,-0.18310546875,0.06103515625,-0.244140625
129.59499979019165,0.99853515625,0.0,-0.0458984375,97.82666663328806,97.82500004768372,1.6665856043402982,0.0,0.18310546875,-0.06103515625
129.59999990463257,0.9912109375,-0.03173828125,-0.03857421875,97.83166674772896,97.83000016212463,1.6665856043260874,-0.1220703125,0.0,0.1220703125
129.6049997806549,0.9931640625,-0.041015625,-0.04150390625,97.83666662375131,97.83500003814696,1.666585604354509,-0.06103515625,0.1220703125,0.3662109375
129.60999989509585,0.9931640625,-0.041015625,-0.05029296875,97.84166673819226,97.84000015258788,1.6665856043829308,-0.1220703125,0.06103515625,-0.18310546875
129.61499977111816,1.01025390625,-0.05712890625,-0.06298828125,97.84666661421456,97.84500002861024,1.6665856043118765,0.06103515625,0.0,0.18310546875
129.61999988555908,0.9951171875,-0.03515625,-0.05810546875,97.85166672865547,97.85000014305116,1.6665856043118765,0.0,-0.06103515625,-0.1220703125
129.625,0.98779296875,-0.0478515625,-0.041015625,97.8566668430964,97.85500001907349,1.6668240229193998,0.1220703125,0.06103515625,0.0
129.62999987602234,0.9921875,-0.00830078125,-0.017578125,97.86166671911874,97.8600001335144,1.6665856043402982,0.1220703125,-0.1220703125,-0.54931640625
129.63499999046326,1.00341796875,-0.05615234375,-0.00341796875,97.86666683355966,97.86500000953674,1.6668240229193998,0.0,0.0,0.0
129.6399998664856,0.99365234375,-0.0029296875,-0.01318359375,97.871666709582,97.87000012397766,1.6665856043402982,-0.06103515625,0.06103515625,0.0
129.6449999809265,0.99462890625,-0.02294921875,-0.041015625,97.87666682402292,97.875,1.6668240229193998,-0.06103515625,0.0,0.0
129.64999985694885,0.98779296875,-0.02783203125,-0.0791015625,97.88166670004526,97.88000011444092,1.6665856043402982,-0.06103515625,0.0,0.244140625
129.65499997138977,0.97705078125,-0.0556640625,-0.0634765625,97.88666681448618,97.88499999046326,1.6668240229193998,-0.06103515625,0.06103515625,0.0
129.6599998474121,0.99560546875,-0.03662109375,-0.04736328125,97.89166669050852,97.89000010490416,1.666585604354509,0.1220703125,0.0,0.0
129.66499996185303,0.99755859375,-0.060546875,-0.033203125,97.89666680494943,97.89499998092651,1.6668240229193998,-0.06103515625,-0.06103515625,-0.3662109375
129.66999983787537,1.015625,-0.0400390625,-0.0283203125,97.90166668097176,97.9000000953674,1.666585604354509,-0.06103515625,0.0,-0.30517578125
129.67499995231628,1.005859375,-0.01953125,-0.041015625,97.90666679541268,97.90499997138976,1.6668240229193998,-0.1220703125,0.0,-0.1220703125
129.67999982833862,0.9912109375,0.0009765625,-0.04296875,97.91166667143504,97.91000008583067,1.66658560436872,-0.06103515625,0.1220703125,0.1220703125
129.68499994277954,0.99169921875,-0.03271484375,-0.02734375,97.91666678587596,97.91499996185304,1.6668240229193998,0.0,0.06103515625,0.1220703125
129.68999981880188,0.9951171875,-0.00390625,-0.0341796875,97.92166666189829,97.92000007629396,1.6665856043260874,0.06103515625,0.0,0.06103515625
129.6949999332428,0.99609375,-0.0537109375,-0.0390625,97.9266667763392,97.92499995231628,1.6668240229193998,0.0,0.1220703125,0.06103515625
129.69999980926514,0.986328125,-0.041015625,-0.056640625,97.93166665236154,97.93000006675724,1.6665856042976657,-0.1220703125,0.0,-0.18310546875
129.70499992370603,1.01513671875,-0.06005859375,-0.0673828125,97.93666676680245,97.93499994277954,1.666824022905189,0.0,-0.1220703125,0.30517578125
129.7099997997284,0.9921875,-0.03369140625,-0.06005859375,97.9416666428248,97.94000005722046,1.6665856043402982,0.1220703125,-0.1220703125,-0.244140625
129.7149999141693,1.00146484375,-0.037109375,-0.03857421875,97.94666675726572,97.94500017166138,1.6665856043402982,0.1220703125,0.0,-0.3662109375
129.71999979019165,1.00244140625,-0.033203125,-0.02685546875,97.95166663328806,97.95000004768372,1.6665856043402982,0.06103515625,0.0,0.0
129.72499990463257,0.99951171875,-0.00732421875,-0.0224609375,97.95666674772896,97.95500016212463,1.6665856043260874,0.0,0.0,-0.244140625
129.7299997806549,0.99560546875,-0.04052734375,-0.041015625,97.96166662375131,97.96000003814696,1.666585604354509,-0.18310546875,-0.06103515625,-0.06103515625
129.73499989509585,0.98486328125,-0.015625,-0.06005859375,97.96666673819226,97.96500015258788,1.6665856043829308,0.0,0.06103515625,0.18310546875
129.73999977111816,0.98388671875,-0.04638671875,-0.06591796875,97.97166661421456,97.97000002861024,1.6665856043118765,0.06103515625,0.1220703125,0.48828125
129.74499988555908,0.9697265625,-0.0400390625,-0.05224609375,97.97666672865547,97.97500014305116,1.6665856043118765,0.0,-0.06103515625,-0.18310546875
129.75,0.9814453125,-0.05078125,-0.029296875,97.9816668430964,97.98000001907349,1.6668240229193998,0.0,0.0,-0.1220703125
129.75499987602234,1.013671875,-0.04052734375,-0.02099609375,97.98666671911874,97.9850001335144,1.6665856043402982,0.0,-0.06103515625,-0.18310546875
129.75999999046326,1.0087890625,-0.01611328125,-0.03173828125,97.99166683355966,97.99000000953674,1.6668240229193998,-0.06103515625,-0.1220703125,-0.1220703125
129.7649998664856,1.00341796875,-0.01416015625,-0.0458984375,97.996666709582,97.99500012397766,1.6665856043402982,0.0,-0.06103515625,-0.244140625
129.7699999809265,1.00439453125,-0.01025390625,-0.04052734375,98.00166682402292,98.0,1.6668240229193998,0.06103515625,0.06103515625,0.18310546875
129.77499985694885,1.0048828125,-0.0234375,-0.03857421875,98.00666670004526,98.00500011444092,1.6665856043402982,-0.06103515625,0.0,0.0
129.77999997138977,0.9921875,-0.0439453125,-0.0380859375,98.01166681448618,98.00999999046326,1.6668240229193998,0.0,0.0,0.48828125
129.7849998474121,1.001953125,-0.0302734375,-0.05224609375,98.01666669050852,98.01500010490416,1.666585604354509,-0.1220703125,-0.1220703125,-0.18310546875
129.78999996185303,1.005859375,-0.06103515625,-0.06591796875,98.02166680494943,98.01999998092651,1.6668240229193998,-0.1220703125,0.0,-0.1220703125
129.79499983787537,1.00146484375,-0.0322265625,-0.06982421875,98.02666668097176,98.0250000953674,1.666585604354509,0.0,-0.06103515625,0.0
129.79999995231628,0.98095703125,-0.0126953125,-0.03076171875,98.03166679541268,98.02999997138976,1.6668240229193998,0.0,0.0,-0.67138671875
129.80499982833862,1.01025390625,-0.02734375,-0.01416015625,98.03666667143504,98.03500008583067,1.66658560436872,0.18310546875,0.0,0.1220703125
129.80999994277954,0.982421875,-0.01513671875,-0.005859375,98.04166678587596,98.03999996185304,1.6668240229193998,-0.18310546875,0.0,-0.42724609375
129.81499981880188,0.9912109375,-0.01416015625,-0.029296875,98.04666666189829,98.04500007629396,1.6665856043260874,0.0,0.0,0.244140625
129.8199999332428,0.98046875,-0.0341796875,-0.05908203125,98.0516667763392,98.04999995231628,1.6668240229193998,-0.1220703125,0.06103515625,0.244140625
129.82499980926514,0.986328125,-0.05810546875,-0.080078125,98.05666665236154,98.05500006675724,1.6665856042976657,0.18310546875,0.0,0.67138671875
129.82999992370603,0.974609375,-0.0283203125,-0.05615234375,98.06166676680245,98.05999994277954,1.666824022905189,0.0,-0.06103515625,-0.30517578125
129.8349997997284,0.99609375,-0.0634765625,-0.046875,98.0666666428248,98.06500005722046,1.6665856043402982,0.18310546875,0.0,0.1220703125
129.8399999141693,0.99755859375,-0.044921875,-0.03759765625,98.07166675726572,98.07000017166138,1.6665856043402982,0.0,0.0,-0.42724609375
129.84499979019165,1.0185546875,-0.02685546875,-0.02978515625,98.07666663328806,98.07500004768372,1.6665856043402982,0.0,0.0,-0.244140625
129.84999990463257,0.9970703125,-0.01708984375,-0.03955078125,98.08166674772896,98.08000016212463,1.6665856043260874,0.0,-0.06103515625,-0.1220703125
129.8549997806549,1.00146484375,-0.00830078125,-0.033203125,98.08666662375131,98.08500003814696,1.666585604354509,-0.06103515625,0.1220703125,-0.06103515625
129.85999989509585,0.99755859375,-0.01220703125,-0.02197265625,98.09166673819226,98.09000015258788,1.6665856043829308,0.06103515625,0.1220703125,0.244140625
129.86499977111816,0.99609375,-0.01416015625,-0.025390625,98.09666661421456,98.09500002861024,1.6665856043118765,0.0,0.18310546875,0.0
129.86999988555908,1.001953125,-0.06005859375,-0.0361328125,98.10166672865547,98.10000014305116,1.6665856043118765,0.18310546875,0.0,0.6103515625
129.875,1.00537109375,-0.02880859375,-0.0625,98.1066668430964,98.10500001907349,1.6668240229193998,0.06103515625,0.1220703125,-0.06103515625
129.87999987602234,1.00390625,-0.0517578125,-0.0595703125,98.11166671911874,98.1100001335144,1.6665856043402982,-0.06103515625,-0.1220703125,-0.1220703125
129.88499999046326,0.99853515625,-0.0322265625,-0.05810546875,98.11666683355966,98.11500000953674,1.6668240229193998,0.1220703125,0.0,-0.06103515625
129.8899998664856,1.0126953125,-0.03125,-0.03466796875,98.121666709582,98.12000012397766,1.6665856043402982,0.1220703125,0.0,-0.1220703125
129.8949999809265,0.99560546875,-0.025390625,-0.02294921875,98.12666682402292,98.125,1.6668240229193998,0.0,-0.06103515625,-0.06103515625
129.89999985694885,1.00146484375,-0.015625,-0.01806640625,98.13166670004526,98.13000011444092,1.6665856043402982,-0.18310546875,0.0,-0.42724609375
129.90499997138977,1.00341796875,-0.02880859375,-0.0361328125,98.13666681448618,98.13499999046326,1.6668240229193998,0.0,0.06103515625,0.18310546875
129.9099998474121,0.986328125,-0.00927734375,-0.0576171875,98.14166669050852,98.14000010490416,1.666585604354509,0.0,0.1220703125,0.1220703125
129.91499996185303,0.96533203125,-0.05322265625,-0.064453125,98.14666680494943,98.14499998092651,1.6668240229193998,0.0,0.06103515625,0.42724609375
129.91999983787537,0.97021484375,-0.04052734375,-0.0478515625,98.15166668097176,98.1500000953674,1.666585604354509,0.18310546875,0.0,-0.06103515625
129.92499995231628,0.99072265625,-0.046875,-0.02685546875,98.15666679541268,98.15499997138976,1.6668240229193998,0.06103515625,0.0,0.1220703125
129.92999982833862,1.00732421875,-0.0546875,-0.0322265625,98.16166667143504,98.16000008583067,1.66658560436872,0.1220703125,0.06103515625,0.0
129.93499994277954,1.001953125,-0.00732421875,-0.04736328125,98.16666678587596,98.16499996185304,1.6668240229193998,-0.18310546875,-0.1220703125,-0.3662109375
129.93999981880188,1.00146484375,-0.02001953125,-0.0517578125,98.17166666189829,98.17000007629396,1.6665856043260874,-0.1220703125,0.0,-0.18310546875
129.9449999332428,1.00146484375,-0.00634765625,-0.0419921875,98.1766667763392,98.17499995231628,1.6668240229193998,0.0,0.0,0.30517578125
129.94999980926514,0.99609375,-0.0205078125,-0.03759765625,98.18166665236154,98.18000006675724,1.6665856042976657,-0.1220703125,0.0,0.1220703125
129.95499992370603,1.00048828125,-0.056640625,-0.0458984375,98.18666676680245,98.18499994277954,1.666824022905189,0.0,0.18310546875,0.06103515625
129.9599997997284,1.0029296875,-0.02978515625,-0.0654296875,98.1916666428248,98.19000005722046,1.6665856043402982,-0.1220703125,0.1220703125,-0.06103515625
129.9649999141693,1.00830078125,-0.06787109375,-0.06689453125,98.19666675726572,98.19500017166138,1.6665856043402982,0.0,0.0,0.0
129.96999979019165,0.99072265625,-0.025390625,-0.0634765625,98.20166663328806,98.20000004768372,1.6665856043402982,-0.1220703125,0.0,-0.06103515625
129.97499990463257,0.9892578125,-0.03564453125,-0.03515625,98.20666674772896,98.20500016212463,1.6665856043260874,0.0,-0.06103515625,-0.48828125
129.9799997806549,1.0078125,-0.013671875,-0.02294921875,98.21166662375131,98.21000003814696,1.666585604354509,0.0,-0.1220703125,-0.1220703125
129.98499989509585,0.99462890625,-0.01611328125,-0.01123046875,98.21666673819226,98.21500015258788,1.6665856043829308,-0.18310546875,-0.06103515625,-0.30517578125
129.98999977111816,0.99462890625,-0.021484375,-0.02783203125,98.22166661421456,98.22000002861024,1.6665856043118765,0.0,0.0,0.30517578125
129.99499988555908,0.98193359375,-0.02587890625,-0.0517578125,98.22666672865547,98.22500014305116,1.6665856043118765,-0.244140625,0.06103515625,0.1220703125
130.0,1.0107421875,-0.03125,-0.0205078125,98.2316668430964,98.23000001907349,1.6668240229193998,0.0,-0.06103515625,-0.54931640625
130.00499987602234,1.0029296875,-0.0263671875,-0.03515625,98.23666671911874,98.2350001335144,1.6665856043402982,-0.1220703125,0.0,0.18310546875
130.00999999046326,0.99462890625,0.00146484375,-0.04541015625,98.24166683355966,98.24000000953674,1.6668240229193998,-0.06103515625,0.1220703125,-0.06103515625
130.0149998664856,0.9833984375,-0.0166015625,-0.03564453125,98.246666709582,98.24500012397766,1.6665856043402982,0.18310546875,0.06103515625,0.0
130.0199999809265,0.9853515625,-0.01513671875,-0.033203125,98.25166682402292,98.25,1.6668240229193998,-0.1220703125,0.0,0.06103515625
130.02499985694885,1.00244140625,-0.06689453125,-0.03369140625,98.25666670004526,98.25500011444092,1.6665856043402982,0.0,0.1220703125,0.42724609375
130.02999997138977,0.998046875,-0.02685546875,-0.05712890625,98.26166681448618,98.25999999046326,1.6668240229193998,0.0,0.0,-0.42724609375
130.0349998474121,1.015625,-0.068359375,-0.06591796875,98.26666669050852,98.26500010490416,1.666585604354509,-0.1220703125,0.06103515625,0.1220703125
130.03999996185303,0.9921875,-0.02734375,-0.06494140625,98.27166680494943,98.26999998092651,1.6668240229193998,0.1220703125,0.0,-0.1220703125
130.04499983787537,1.01611328125,-0.046875,-0.0419921875,98.27666668097176,98.2750000953674,1.666585604354509,0.18310546875,0.0,-0.48828125
130.04999995231628,1.00341796875,-0.02099609375,-0.02734375,98.28166679541268,98.27999997138976,1.6668240229193998,0.0,-0.06103515625,0.06103515625
130.05499982833862,1.0048828125,-0.02294921875,-0.0224609375,98.28666667143504,98.28500008583067,1.66658560436872,0.0,0.0,-0.244140625
130.05999994277954,0.99169921875,-0.02392578125,-0.03662109375,98.29166678587596,98.28999996185304,1.6668240229193998,-0.18310546875,0.0,-0.18310546875
130.06499981880188,0.990234375,-0.01904296875,-0.05810546875,98.29666666189829,98.29500007629396,1.6665856043260874,-0.1220703125,0.06103515625,0.1220703125
130.0699999332428,0.97998046875,-0.02978515625,-0.06591796875,98.3016667763392,98.29999995231628,1.6668240229193998,0.0,0.1220703125,0.3662109375
130.07499980926514,0.98388671875,-0.0302734375,-0.044921875,98.30666665236154,98.30500006675724,1.6665856042976657,0.0,0.0,-0.1220703125
130.07999992370603,0.98828125,-0.04638671875,-0.02587890625,98.31166676680245,98.30999994277954,1.666824022905189,0.0,0.0,0.0
130.0849997997284,1.00146484375,-0.052734375,-0.03076171875,98.3166666428248,98.31500005722046,1.6665856043402982,0.1220703125,0.06103515625,0.0
130.0899999141693,1.009765625,-0.01708984375,-0.0322265625,98.32166675726572,98.32000017166138,1.6665856043402982,-0.1220703125,-0.18310546875,-0.6103515625
130.09499979019165,1.00341796875,-0.0283203125,-0.04443359375,98.32666663328806,98.32500004768372,1.6665856043402982,-0.1220703125,0.0,0.06103515625
130.09999990463257,0.99365234375,-0.01416015625,-0.037109375,98.33166674772896,98.33000016212463,1.6665856043260874,0.1220703125,0.0,0.48828125
130.1049997806549,0.99609375,-0.033203125,-0.03173828125,98.33666662375131,98.33500003814696,1.666585604354509,-0.06103515625,-0.06103515625,0.1220703125
130.10999989509585,0.99267578125,-0.041015625,-0.0390625,98.34166673819226,98.34000015258788,1.6665856043829308,0.0,0.0,0.18310546875
130.11499977111816,0.9931640625,-0.03515625,-0.046875,98.34666661421456,98.34500002861024,1.6665856043118765,-0.18310546875,0.0,-0.06103515625
130.11999988555908,1.00732421875,-0.06298828125,-0.06494140625,98.35166672865547,98.35000014305116,1.6665856043118765,0.0,0.0,0.244140625
130.125,0.9970703125,-0.02734375,-0.0654296875,98.3566668430964,98.35500001907349,1.6668240229193998,-0.244140625,-0.18310546875,-0.06103515625
130.12999987602234,0.9833984375,-0.04833984375,-0.0390625,98.36166671911874,98.3600001335144,1.6665856043402982,0.0,-0.1220703125,-0.244140625
130.13499999046326,1.001953125,-0.01171875,-0.0166015625,98.36666683355966,98.36500000953674,1.6668240229193998,0.0,-0.18310546875,-0.42724609375
130.1399998664856,1.00390625,-0.04931640625,-0.00537109375,98.371666709582,98.37000012397766,1.6665856043402982,-0.06103515625,-0.1220703125,-0.18310546875
130.1449999809265,0.9970703125,-0.00634765625,-0.01025390625,98.37666682402292,98.375,1.6668240229193998,0.0,-0.06103515625,-0.1220703125
130.14999985694885,0.982421875,-0.02294921875,-0.0537109375,98.38166670004526,98.38000011444092,1.6665856043402982,-0.30517578125,0.1220703125,0.18310546875
130.15499997138977,0.98779296875,-0.03076171875,-0.08203125,98.38666681448618,98.38499999046326,1.6668240229193998,0.0,0.0,0.67138671875
130.1599998474121,0.9794921875,-0.056640625,-0.06982421875,98.39166669050852,98.39000010490416,1.666585604354509,0.06103515625,0.0,0.0
130.16499996185303,0.998046875,-0.04833984375,-0.05517578125,98.39666680494943,98.39499998092651,1.6668240229193998,0.1220703125,0.0,0.0
130.16999983787537,0.998046875,-0.04638671875,-0.03662109375,98.40166668097176,98.4000000953674,1.666585604354509,-0.06103515625,0.0,-0.3662109375
130.17499995231628,1.017578125,-0.00341796875,-0.03662109375,98.40666679541268,98.40499997138976,1.6668240229193998,-0.06103515625,0.0,-0.48828125
130.17999982833862,1.00537109375,-0.02294921875,-0.0439453125,98.41166667143504,98.41000008583067,1.66658560436872,-0.06103515625,0.0,0.0
130.18499994277954,0.98779296875,-0.00244140625,-0.0419921875,98.41666678587596,98.41499996185304,1.6668240229193998,0.06103515625,0.0,0.42724609375
130.18999981880188,0.98974609375,-0.0322265625,-0.02783203125,98.42166666189829,98.42000007629396,1.6665856043260874,0.0,0.18310546875,-0.06103515625
130.1949999332428,0.9951171875,-0.0126953125,-0.0302734375,98.4266667763392,98.42499995231628,1.6668240229193998,0.0,0.06103515625,-0.06103515625
130.19999980926514,0.998046875,-0.05224609375,-0.03466796875,98.43166665236154,98.43000006675724,1.6665856042976657,0.0,0.06103515625,0.42724609375
130.20499992370603,0.9892578125,-0.03564453125,-0.0556640625,98.43666676680245,98.43499994277954,1.666824022905189,-0.18310546875,0.0,-0.3662109375
130.2099997997284,1.00634765625,-0.06298828125,-0.0673828125,98.4416666428248,98.44000005722046,1.6665856043402982,-0.06103515625,0.0,0.244140625
130.2149999141693,0.9892578125,-0.0322265625,-0.06201171875,98.44666675726572,98.44500017166138,1.6665856043402982,0.06103515625,-0.06103515625,-0.06103515625
130.21999979019165,1.0029296875,-0.05029296875,-0.03857421875,98.45166663328806,98.45000004768372,1.6665856043402982,0.06103515625,0.0,-0.30517578125
130.22499990463257,0.99951171875,-0.03173828125,-0.00732421875,98.45666674772896,98.45500016212463,1.6665856043260874,0.1220703125,-0.06103515625,0.0
130.2299997806549,0.9990234375,-0.0234375,-0.01171875,98.46166662375131,98.46000003814696,1.666585604354509,0.0,0.0,-0.06103515625
130.23499989509585,0.99072265625,-0.0234375,-0.04150390625,98.46666673819226,98.46500015258788,1.6665856043829308,-0.18310546875,0.0,0.06103515625
130.23999977111816,0.9853515625,-0.02880859375,-0.0595703125,98.47166661421456,98.47000002861024,1.6665856043118765,-0.06103515625,0.0,0.06103515625
130.24499988555908,0.9765625,-0.0400390625,-0.07080078125,98.47666672865547,98.47500014305116,1.6665856043118765,0.0,0.0,0.54931640625
130.25,0.99365234375,-0.04248046875,-0.04541015625,98.4816668430964,98.48000001907349,1.6668240229193998,0.0,0.0,0.1220703125
130.25499987602234,0.98779296875,-0.041015625,-0.0302734375,98.48666671911874,98.4850001335144,1.6665856043402982,0.18310546875,0.0,-0.1220703125
130.25999999046326,1.0146484375,-0.04736328125,-0.02783203125,98.49166683355966,98.49000000953674,1.6668240229193998,0.0,0.0,-0.244140625
130.2649998664856,1.0166015625,-0.01171875,-0.0390625,98.496666709582,98.49500012397766,1.6665856043402982,0.0,-0.1220703125,-0.18310546875
130.2699999809265,1.00634765625,-0.0107421875,-0.05859375,98.50166682402292,98.5,1.6668240229193998,-0.06103515625,0.06103515625,-0.06103515625
130.27499985694885,1.00341796875,-0.01708984375,-0.0498046875,98.50666670004526,98.50500011444092,1.6665856043402982,0.0,0.0,0.1220703125
130.27999997138977,1.0029296875,-0.02294921875,-0.03955078125,98.51166681448618,98.50999999046326,1.6668240229193998,-0.1220703125,0.0,0.0
130.2849998474121,0.994140625,-0.0458984375,-0.04345703125,98.51666669050852,98.51500010490416,1.666585604354509,0.06103515625,-0.06103515625,0.3662109375
130.28999996185303,0.9970703125,-0.03125,-0.05908203125,98.52166680494943,98.51999998092651,1.6668240229193998,-0.06103515625,-0.06103515625,-0.42724609375
130.29499983787537,1.0078125,-0.0576171875,-0.06982421875,98.52666668097176,98.5250000953674,1.666585604354509,-0.06103515625,0.0,0.06103515625
130.29999995231628,0.99169921875,-0.04345703125,-0.05859375,98.53166679541268,98.52999997138976,1.6668240229193998,0.0,-0.06103515625,-0.06103515625
130.30499982833862,0.97705078125,-0.03515625,-0.03173828125,98.53666667143504,98.53500008583067,1.66658560436872,0.0,-0.06103515625,-0.54931640625
130.30999994277954,1.00830078125,-0.0224609375,-0.005859375,98.54166678587596,98.53999996185304,1.6668240229193998,0.18310546875,0.0,-0.244140625
130.31499981880188,0.98388671875,-0.02197265625,0.0,98.54666666189829,98.54500007629396,1.6665856043260874,-0.1220703125,0.0,0.0
130.3199999332428,0.9931640625,-0.01220703125,-0.0244140625,98.5516667763392,98.54999995231628,1.6668240229193998,-0.1220703125,0.06103515625,0.18310546875
130.32499980926514,0.9873046875,-0.0341796875,-0.052734375,98.55666665236154,98.55500006675724,1.6665856042976657,0.0,0.1220703125,0.1220703125
130.32999992370603,0.98388671875,-0.0244140625,-0.072265625,98.56166676680245,98.55999994277954,1.666824022905189,0.0,0.0,0.244140625
130.3349997997284,0.9765625,-0.07275390625,-0.06103515625,98.5666666428248,98.56500005722046,1.6665856043402982,0.0,0.0,0.18310546875
130.3399999141693,0.994140625,-0.0283203125,-0.05029296875,98.57166675726572,98.57000017166138,1.6665856043402982,0.1220703125,-0.06103515625,0.06103515625
130.34499979019165,0.99853515625,-0.06787109375,-0.03857421875,98.57666663328806,98.57500004768372,1.6665856043402982,-0.06103515625,0.0,0.0
130.34999990463257,1.0224609375,-0.02197265625,-0.03271484375,98.58166674772896,98.58000016212463,1.6665856043260874,-0.1220703125,-0.06103515625,-0.42724609375
130.3549997806549,1.00634765625,-0.015625,-0.03759765625,98.58666662375131,98.58500003814696,1.666585604354509,0.0,0.0,-0.18310546875
130.35999989509585,1.00146484375,-0.00732421875,-0.0341796875,98.59166673819226,98.59000015258788,1.6665856043829308,0.06103515625,0.06103515625,-0.1220703125
130.36499977111816,0.9931640625,-0.01123046875,-0.02587890625,98.59666661421456,98.59500002861024,1.6665856043118765,0.06103515625,0.0,0.0
130.36999988555908,0.99267578125,-0.0185546875,-0.0302734375,98.60166672865547,98.60000014305116,1.6665856043118765,0.0,0.0,0.1220703125
130.375,1.001953125,-0.07666015625,-0.0419921875,98.6066668430964,98.60500001907349,1.6668240229193998,0.0,0.0,0.42724609375
130.37999987602234,0.99169921875,-0.02001953125,-0.05908203125,98.61166671911874,98.6100001335144,1.6665856043402982,0.0,0.0,-0.18310546875
130.38499999046326,1.0068359375,-0.07177734375,-0.0673828125,98.61666683355966,98.61500000953674,1.6668240229193998,0.0,-0.18310546875,0.18310546875
130.3899998664856,0.98388671875,-0.02392578125,-0.06005859375,98.621666709582,98.62000012397766,1.6665856043402982,0.0,-0.1220703125,-0.3662109375
130.3949999809265,1.01611328125,-0.03369140625,-0.0380859375,98.62666682402292,98.625,1.6668240229193998,0.06103515625,-0.06103515625,-0.1220703125
130.39999985694885,0.99755859375,-0.029296875,-0.02685546875,98.63166670004526,98.63000011444092,1.6665856043402982,0.1220703125,0.0,0.0
130.40499997138977,1.00390625,-0.00390625,-0.01806640625,98.63666681448618,98.63499999046326,1.6668240229193998,0.1220703125,0.0,-0.54931640625
130.4099998474121,0.9951171875,-0.0400390625,-0.04052734375,98.64166669050852,98.64000010490416,1.666585604354509,-0.06103515625,0.0,0.06103515625
130.41499996185303,0.99072265625,-0.013671875,-0.0546875,98.64666680494943,98.64499998092651,1.6668240229193998,-0.06103515625,0.0,0.1220703125
130.41999983787537,0.97509765625,-0.0478515625,-0.068359375,98.65166668097176,98.6500000953674,1.666585604354509,0.1220703125,0.0,0.48828125
130.42499995231628,0.9892578125,-0.0322265625,-0.04541015625,98.65666679541268,98.65499997138976,1.6668240229193998,0.06103515625,0.06103515625,-0.30517578125
130.42999982833862,0.9853515625,-0.05029296875,-0.03125,98.66166667143504,98.66000008583067,1.66658560436872,0.0,-0.06103515625,0.06103515625
130.43499994277954,1.00830078125,-0.0498046875,-0.03076171875,98.66666678587596,98.66499996185304,1.6668240229193998,0.06103515625,0.0,-0.244140625
130.43999981880188,1.00439453125,-0.00927734375,-0.0400390625,98.67166666189829,98.67000007629396,1.6665856043260874,-0.30517578125,0.0,-0.244140625
130.4449999332428,1.00439453125,-0.02392578125,-0.05078125,98.6766667763392,98.67499995231628,1.6668240229193998,-0.18310546875,0.0,-0.1220703125
130.44999980926514,1.00048828125,-0.0263671875,-0.04052734375,98.68166665236154,98.68000006675724,1.6665856042976657,0.1220703125,-0.06103515625,0.42724609375
130.45499992370603,0.99267578125,-0.0234375,-0.03857421875,98.68666676680245,98.68499994277954,1.666824022905189,-0.1220703125,0.0,-0.06103515625
130.4599997997284,0.99951171875,-0.05224609375,-0.0419921875,98.6916666428248,98.69000005722046,1.6665856043402982,0.06103515625,0.0,0.3662109375
130.4649999141693,0.9970703125,-0.0244140625,-0.06103515625,98.69666675726572,98.69500017166138,1.6665856043402982,-0.244140625,0.0,-0.3662109375
130.46999979019165,1.0107421875,-0.06982421875,-0.0673828125,98.70166663328806,98.70000004768372,1.6665856043402982,0.0,0.1220703125,0.06103515625
130.47499990463257,0.99169921875,-0.01953125,-0.06640625,98.70666674772896,98.70500016212463,1.6665856043260874,0.18310546875,0.0,0.0
130.4799997806549,0.98974609375,-0.03271484375,-0.0341796875,98.71166662375131,98.71000003814696,1.666585604354509,0.244140625,0.18310546875,-0.48828125
130.48499989509585,1.01220703125,-0.01708984375,-0.02587890625,98.71666673819226,98.71500015258788,1.6665856043829308,0.0,0.0,-0.1220703125
130.48999977111816,0.99755859375,-0.01953125,-0.01708984375,98.72166661421456,98.72000002861024,1.6665856043118765,-0.18310546875,0.06103515625,0.0
130.49499988555908,0.9951171875,-0.01708984375,-0.03369140625,98.72666672865547,98.72500014305116,1.6665856043118765,-0.1220703125,0.0,-0.06103515625
130.5,0.97607421875,-0.02490234375,-0.06884765625,98.7316668430964,98.73000001907349,1.6668240229193998,0.0,0.0,0.0
130.50499987602234,0.9814453125,-0.05322265625,-0.07568359375,98.73666671911874,98.7350001335144,1.6665856043402982,0.06103515625,0.06103515625,0.3662109375
130.50999999046326,0.982421875,-0.033203125,-0.05078125,98.74166683355966,98.74000000953674,1.6668240229193998,0.06103515625,0.0,-0.1220703125
130.5149998664856,0.99267578125,-0.060546875,-0.0380859375,98.746666709582,98.74500012397766,1.6665856043402982,0.1220703125,0.0,0.06103515625
130.5199999809265,0.99853515625,-0.05126953125,-0.02734375,98.75166682402292,98.75,1.6668240229193998,0.06103515625,0.0,-0.244140625
130.52499985694885,1.01123046875,-0.01806640625,-0.021484375,98.75666670004526,98.75500011444092,1.6665856043402982,0.0,-0.06103515625,0.0
130.52999997138977,0.99609375,-0.01025390625,-0.03515625,98.76166681448618,98.75999999046326,1.6668240229193998,-0.1220703125,0.06103515625,-0.244140625
130.5349998474121,0.998046875,-0.009765625,-0.03369140625,98.76666669050852,98.76500010490416,1.666585604354509,0.1220703125,0.0,0.18310546875
130.53999996185303,0.984375,-0.01123046875,-0.02099609375,98.77166680494943,98.76999998092651,1.6668240229193998,-0.06103515625,0.0,-0.1220703125
130.54499983787537,0.99658203125,-0.04296875,-0.01708984375,98.77666668097176,98.7750000953674,1.666585604354509,0.06103515625,0.1220703125,0.244140625
130.54999995231628,0.99462890625,-0.0556640625,-0.0302734375,98.78166679541268,98.77999997138976,1.6668240229193998,0.0,0.06103515625,0.18310546875
130.55499982833862,1.02099609375,-0.04736328125,-0.056640625,98.78666667143504,98.78500008583067,1.66658560436872,0.06103515625,0.0,0.0
130.55999994277954,1.00146484375,-0.03515625,-0.06689453125,98.79166678587596,98.78999996185304,1.6668240229193998,-0.06103515625,-0.06103515625,-0.30517578125
130.56499981880188,1.00146484375,-0.04248046875,-0.0537109375,98.79666666189829,98.79500007629396,1.6665856043260874,0.18310546875,-0.18310546875,-0.06103515625
130.5699999332428,1.01025390625,-0.02880859375,-0.021484375,98.8016667763392,98.79999995231628,1.6668240229193998,0.06103515625,-0.18310546875,-0.3662109375
130.57499980926514,0.99853515625,-0.02294921875,-0.0234375,98.80666665236154,98.80500006675724,1.6665856042976657,-0.18310546875,-0.06103515625,-0.30517578125
130.57999992370603,0.9951171875,-0.02490234375,-0.0380859375,98.81166676680245,98.80999994277954,1.666824022905189,-0.244140625,0.0,0.1220703125
130.5849997997284,0.990234375,-0.013671875,-0.0634765625,98.8166666428248,98.81500005722046,1.6665856043402982,-0.18310546875,0.1220703125,-0.06103515625
130.5899999141693,0.978515625,-0.02490234375,-0.06591796875,98.82166675726572,98.82000017166138,1.6665856043402982,0.0,0.1220703125,0.0
130.59499979019165,0.96337890625,-0.05615234375,-0.0576171875,98.82666663328806,98.82500004768372,1.6665856043402982,0.18310546875,0.1220703125,0.30517578125
130.59999990463257,0.98388671875,-0.046875,-0.04052734375,98.83166674772896,98.83000016212463,1.6665856043260874,0.06103515625,0.0,0.30517578125
130.6049997806549,1.005859375,-0.05419921875,-0.04052734375,98.83666662375131,98.83500003814696,1.666585604354509,0.0,-0.06103515625,-0.3662109375
130.60999989509585,0.998046875,-0.02734375,-0.0380859375,98.84166673819226,98.84000015258788,1.6665856043829308,-0.1220703125,0.0,-0.30517578125
130.61499977111816,1.00048828125,-0.0107421875,-0.0458984375,98.84666661421456,98.84500002861024,1.6665856043118765,-0.18310546875,-0.06103515625,-0.18310546875
130.61999988555908,1.00146484375,-0.00732421875,-0.04052734375,98.85166672865547,98.85000014305116,1.6665856043118765,0.1220703125,0.0,0.06103515625
130.625,0.99560546875,-0.02587890625,-0.0322265625,98.8566668430964,98.85500001907349,1.6668240229193998,0.06103515625,0.0,0.18310546875
130.62999987602234,1.00341796875,-0.0400390625,-0.04052734375,98.86166671911874,98.8600001335144,1.6665856043402982,0.0,0.06103515625,0.18310546875
130.63499999046326,0.9921875,-0.04833984375,-0.04833984375,98.86666683355966,98.86500000953674,1.6668240229193998,0.0,0.0,0.244140625
130.6399998664856,0.998046875,-0.029296875,-0.06103515625,98.871666709582,98.87000012397766,1.6665856043402982,0.0,-0.06103515625,-0.18310546875
130.6449999809265,1.01025390625,-0.06787109375,-0.064453125,98.87666682402292,98.875,1.6668240229193998,0.0,0.0,0.1220703125
130.64999985694885,0.99658203125,-0.04345703125,-0.05078125,98.88166670004526,98.88000011444092,1.6665856043402982,0.18310546875,-0.06103515625,0.1220703125
130.65499997138977,0.990234375,-0.0166015625,-0.02294921875,98.88666681448618,98.88499999046326,1.6668240229193998,0.0,-0.1220703125,-0.54931640625
130.6599998474121,1.01171875,-0.04736328125,-0.01416015625,98.89166669050852,98.89000010490416,1.666585604354509,0.1220703125,0.1220703125,-0.06103515625
130.66499996185303,0.98876953125,-0.01025390625,-0.0166015625,98.89666680494943,98.89499998092651,1.6668240229193998,-0.1220703125,0.06103515625,-0.1220703125
130.66999983787537,0.9951171875,-0.02001953125,-0.04345703125,98.90166668097176,98.9000000953674,1.666585604354509,-0.06103515625,0.0,0.0
130.67499995231628,0.98388671875,-0.01611328125,-0.07470703125,98.90666679541268,98.90499997138976,1.6668240229193998,-0.06103515625,0.0,0.06103515625
130.67999982833862,0.98828125,-0.05126953125,-0.0859375,98.91166667143504,98.91000008583067,1.66658560436872,0.18310546875,0.0,0.6103515625
130.68499994277954,0.986328125,-0.04150390625,-0.06103515625,98.91666678587596,98.91499996185304,1.6668240229193998,0.06103515625,0.06103515625,-0.06103515625
130.68999981880188,0.99609375,-0.0556640625,-0.05126953125,98.92166666189829,98.92000007629396,1.6665856043260874,0.18310546875,-0.06103515625,0.0
130.6949999332428,1.001953125,-0.04736328125,-0.02880859375,98.9266667763392,98.92499995231628,1.6668240229193998,0.1220703125,0.0,-0.48828125
130.69999980926514,1.01806640625,-0.01953125,-0.03125,98.93166665236154,98.93000006675724,1.6665856042976657,0.1220703125,0.0,-0.1220703125
130.70499992370603,0.998046875,-0.00537109375,-0.044921875,98.93666676680245,98.93499994277954,1.666824022905189,0.0,0.0,-0.42724609375
130.7099997997284,0.97802734375,-0.01513671875,-0.03515625,98.9416666428248,98.94000005722046,1.6665856043402982,-0.06103515625,0.1220703125,0.3662109375
130.7149999141693,0.99365234375,-0.02001953125,-0.02978515625,98.94666675726572,98.94500017166138,1.6665856043402982,0.0,0.0,0.0
130.71999979019165,0.9912109375,-0.0283203125,-0.02392578125,98.95166663328806,98.95000004768372,1.6665856043402982,0.0,0.06103515625,0.0
130.72499990463257,0.9912109375,-0.046875,-0.04931640625,98.95666674772896,98.95500016212463,1.6665856043260874,-0.30517578125,0.0,-0.18310546875
130.7299997806549,1.0126953125,-0.0556640625,-0.06787109375,98.96166662375131,98.96000003814696,1.666585604354509,0.06103515625,0.06103515625,0.30517578125
130.73499989509585,0.99755859375,-0.0380859375,-0.0615234375,98.96666673819226,98.96500015258788,1.6665856043829308,0.0,0.0,-0.18310546875
130.73999977111816,0.9970703125,-0.03271484375,-0.05078125,98.97166661421456,98.97000002861024,1.6665856043118765,0.18310546875,-0.1220703125,-0.3662109375
130.74499988555908,1.00732421875,-0.02783203125,-0.02197265625,98.97666672865547,98.97500014305116,1.6665856043118765,-0.1220703125,-0.06103515625,-0.18310546875
130.75,0.98828125,-0.0283203125,-0.00927734375,98.9816668430964,98.98000001907349,1.6668240229193998,-0.06103515625,0.0,-0.244140625
130.75499987602234,0.99169921875,-0.02099609375,-0.01513671875,98.98666671911874,98.9850001335144,1.6665856043402982,0.0,0.0,0.0
130.75999999046326,0.9833984375,-0.0302734375,-0.0498046875,98.99166683355966,98.99000000953674,1.6668240229193998,-0.1220703125,0.0,0.06103515625
130.7649998664856,0.98828125,-0.0234375,-0.06298828125,98.996666709582,98.99500012397766,1.6665856043402982,-0.06103515625,0.06103515625,0.30517578125
130.7699999809265,0.97265625,-0.052734375,-0.06201171875,99.00166682402292,99.0,1.6668240229193998,0.06103515625,0.1220703125,0.30517578125
130.77499985694885,0.99072265625,-0.0458984375,-0.03369140625,99.00666670004526,99.00500011444092,1.6665856043402982,0.1220703125,0.06103515625,0.30517578125
130.77999997138977,1.0048828125,-0.03466796875,-0.02880859375,99.01166681448618,99.00999999046326,1.6668240229193998,0.1220703125,0.0,-0.3662109375
130.7849998474121,1.015625,-0.03466796875,-0.0205078125,99.01666669050852,99.01500010490416,1.666585604354509,-0.06103515625,0.0,-0.244140625
130.78999996185303,1.01416015625,-0.0087890625,-0.048828125,99.02166680494943,99.01999998092651,1.6668240229193998,0.06103515625,-0.1220703125,0.0
130.79499983787537,1.00537109375,-0.017578125,-0.05078125,99.02666668097176,99.0250000953674,1.666585604354509,-0.06103515625,-0.06103515625,-0.244140625
130.79999995231628,0.998046875,-0.03076171875,-0.03466796875,99.03166679541268,99.02999997138976,1.6668240229193998,0.0,0.0,0.0
130.80499982833862,0.99267578125,-0.0361328125,-0.04248046875,99.03666667143504,99.03500008583067,1.66658560436872,0.06103515625,0.06103515625,0.3662109375
130.80999994277954,0.99755859375,-0.041015625,-0.0458984375,99.04166678587596,99.03999996185304,1.6668240229193998,0.0,-0.1220703125,-0.244140625
130.81499981880188,1.00390625,-0.04150390625,-0.07177734375,99.04666666189829,99.04500007629396,1.6665856043260874,-0.06103515625,-0.06103515625,0.1220703125
130.8199999332428,1.00048828125,-0.04248046875,-0.072265625,99.0516667763392,99.04999995231628,1.6668240229193998,-0.06103515625,-0.06103515625,-0.1220703125
130.82499980926514,0.9853515625,-0.04833984375,-0.05615234375,99.05666665236154,99.05500006675724,1.6665856042976657,0.18310546875,0.06103515625,0.18310546875
130.82999992370603,0.98876953125,-0.0166015625,-0.01953125,99.06166676680245,99.05999994277954,1.666824022905189,0.18310546875,-0.06103515625,-0.67138671875
130.8349997997284,1.0087890625,-0.04248046875,-0.0087890625,99.0666666428248,99.06500005722046,1.6665856043402982,0.06103515625,-0.1220703125,0.0
130.8399999141693,0.99169921875,-0.0048828125,-0.015625,99.07166675726572,99.07000017166138,1.6665856043402982,-0.1220703125,0.0,-0.1220703125
130.84499979019165,0.9931640625,-0.0390625,-0.04736328125,99.07666663328806,99.07500004768372,1.6665856043402982,0.0,0.1220703125,0.42724609375
130.84999990463257,0.9853515625,-0.0126953125,-0.07373046875,99.08166674772896,99.08000016212463,1.6665856043260874,0.0,0.0,0.30517578125
130.8549997806549,0.978515625,-0.07177734375,-0.06982421875,99.08666662375131,99.08500003814696,1.666585604354509,0.06103515625,0.06103515625,0.42724609375
130.85999989509585,0.990234375,-0.03076171875,-0.048828125,99.09166673819226,99.09000015258788,1.6665856043829308,0.0,0.0,-0.244140625
130.86499977111816,0.99853515625,-0.06640625,-0.04541015625,99.09666661421456,99.09500002861024,1.6665856043118765,0.06103515625,-0.06103515625,0.18310546875
130.86999988555908,1.0185546875,-0.0341796875,-0.0439453125,99.10166672865547,99.10000014305116,1.6665856043118765,0.1220703125,-0.06103515625,-0.30517578125
