t,x,y,z,time_from_sync,aligned_time,time_diff_ms,gyro_x,gyro_y,gyro_z
821.7699999809265,0.81787109375,-0.3056640625,0.0849609375,790.0016668240229,790.0,1.666824022890978,-1.77001953125,0.67138671875,0.54931640625
821.7749998569489,1.162109375,-0.24658203125,-0.0517578125,790.0066667000452,790.0050001144409,1.6665856043118765,1.220703125,0.3662109375,6.04248046875
821.7799999713898,0.72314453125,0.02734375,-0.11572265625,790.0116668144861,790.0099999904633,1.666824022890978,1.40380859375,1.46484375,-4.69970703125
821.7849998474121,0.9951171875,-0.2666015625,-0.095703125,790.0166666905085,790.0150001049042,1.6665856043118765,-2.01416015625,0.0,3.90625
821.789999961853,0.7578125,0.19921875,-0.05029296875,790.0216668049494,790.0199999809265,1.666824022890978,-2.25830078125,0.91552734375,-5.0048828125
821.7949998378754,1.02099609375,-0.19775390625,0.03466796875,790.0266666809717,790.0250000953674,1.6665856043118765,-2.25830078125,0.48828125,-1.3427734375
821.7999999523163,1.029296875,-0.21875,-0.0791015625,790.0316667954127,790.0299999713898,1.666824022890978,-0.3662109375,-0.6103515625,4.39453125
821.8049998283386,0.9228515625,0.07275390625,-0.05859375,790.036666671435,790.0350000858307,1.6665856043118765,-4.39453125,0.42724609375,-4.8828125
821.8099999427795,1.22216796875,-0.27197265625,0.01806640625,790.0416667858759,790.039999961853,1.666824022890978,-0.67138671875,-0.244140625,2.0751953125
821.8149998188019,0.91357421875,0.21923828125,-0.05712890625,790.0466666618983,790.045000076294,1.6665856043118765,-0.8544921875,0.79345703125,-1.15966796875
821.8199999332428,1.1162109375,-0.34130859375,0.025390625,790.0516667763392,790.0499999523163,1.666824022890978,-2.38037109375,0.1220703125,-0.18310546875
821.8249998092651,0.94287109375,0.20458984375,-0.083984375,790.0566666523615,790.0550000667572,1.6665856043118765,1.28173828125,0.732421875,-1.15966796875
821.829999923706,1.056640625,-0.37841796875,0.05517578125,790.0616667668024,790.0599999427795,1.666824022890978,-1.8310546875,0.3662109375,-0.9765625
821.8349997997284,0.9873046875,0.0888671875,0.01171875,790.0666666428248,790.0650000572205,1.6665856043118765,-3.2958984375,-0.3662109375,0.79345703125
821.8399999141693,0.9501953125,-0.1240234375,0.00537109375,790.0716667572657,790.0700001716614,1.6665856043118765,-4.57763671875,0.18310546875,-8.544921875
821.8449997901917,1.1416015625,0.15673828125,0.0400390625,790.076666633288,790.0750000476837,1.6665856043118765,-4.39453125,-1.0986328125,-2.74658203125
821.8499999046326,0.9697265625,0.01171875,-0.0947265625,790.081666747729,790.0800001621246,1.6665856043118765,-0.67138671875,0.0,-1.64794921875
821.8549997806549,1.08837890625,-0.16650390625,-0.1123046875,790.0866666237513,790.085000038147,1.6665856043118765,-0.1220703125,-0.30517578125,1.64794921875
821.8599998950958,1.0048828125,0.19287109375,-0.0615234375,790.0916667381922,790.0900001525879,1.6665856043118765,-2.13623046875,-0.244140625,-4.82177734375
821.8649997711182,1.26416015625,-0.3203125,0.11572265625,790.0966666142145,790.0950000286102,1.6665856043118765,-2.25830078125,-0.6103515625,0.06103515625
821.8699998855591,1.17333984375,0.2685546875,0.01953125,790.1016667286555,790.1000001430511,1.6665856043118765,-4.69970703125,-0.18310546875,-3.90625
821.875,1.06103515625,-0.40380859375,0.1220703125,790.1066668430964,790.1050000190735,1.666824022890978,-4.08935546875,-0.42724609375,-2.01416015625
821.8799998760223,1.0400390625,0.2373046875,-0.0556640625,790.1116667191187,790.1100001335144,1.6665856043118765,-1.15966796875,-0.1220703125,-3.41796875
821.8849999904633,1.189453125,-0.4189453125,-0.068359375,790.1166668335596,790.1150000095367,1.666824022890978,1.3427734375,0.18310546875,-0.18310546875
821.8899998664856,1.1728515625,0.234375,-0.0693359375,790.121666709582,790.1200001239777,1.6665856043118765,0.6103515625,-0.732421875,1.52587890625
821.8949999809265,1.0556640625,-0.26025390625,0.02294921875,790.1266668240229,790.125,1.666824022890978,-2.62451171875,-0.48828125,-5.92041015625
821.8999998569489,1.1904296875,-0.44091796875,0.03515625,790.1316667000452,790.1300001144409,1.6665856043118765,-2.197265625,-1.0986328125,5.37109375
821.9049999713898,1.10302734375,0.13232421875,-0.13330078125,790.1366668144861,790.1349999904633,1.666824022890978,-0.79345703125,-0.42724609375,-1.03759765625
821.9099998474121,1.2412109375,-0.2177734375,0.0458984375,790.1416666905085,790.1400001049042,1.6665856043118765,-2.86865234375,-0.9765625,-2.0751953125
821.914999961853,1.119140625,0.24072265625,-0.0185546875,790.1466668049494,790.1449999809265,1.666824022890978,-2.0751953125,-1.46484375,-1.52587890625
821.9199998378754,1.18310546875,-0.3798828125,0.212890625,790.1516666809717,790.1500000953674,1.6665856043118765,-2.13623046875,-1.64794921875,-0.6103515625
821.9249999523163,1.095703125,-0.43994140625,0.0791015625,790.1566667954127,790.1549999713898,1.666824022890978,-2.44140625,-2.01416015625,3.35693359375
821.9299998283386,1.01513671875,0.11865234375,-0.05322265625,790.161666671435,790.1600000858307,1.6665856043118765,-1.46484375,-1.77001953125,-3.5400390625
821.9349999427795,1.35009765625,-0.35693359375,-0.10595703125,790.1666667858759,790.164999961853,1.666824022890978,0.244140625,-2.01416015625,1.40380859375
821.9399998188019,1.220703125,0.13916015625,-0.06201171875,790.1716666618983,790.170000076294,1.6665856043118765,-3.11279296875,-1.89208984375,-3.47900390625
821.9449999332428,1.30517578125,-0.13037109375,0.11669921875,790.1766667763392,790.1749999523163,1.666824022890978,-5.2490234375,-2.44140625,-4.150390625
821.9499998092651,1.05419921875,0.18310546875,0.08203125,790.1816666523615,790.1800000667572,1.6665856043118765,-5.79833984375,-2.3193359375,-3.90625
821.954999923706,1.06884765625,-0.24658203125,0.0146484375,790.1866667668024,790.1849999427795,1.666824022890978,-2.25830078125,-1.8310546875,0.244140625
821.9599997997284,0.9873046875,0.08740234375,-0.080078125,790.1916666428248,790.1900000572205,1.6665856043118765,-2.01416015625,-1.5869140625,-1.52587890625
821.9649999141693,0.9970703125,-0.17626953125,-0.0986328125,790.1966667572657,790.1950001716614,1.6665856043118765,0.06103515625,-1.3427734375,-1.3427734375
821.9699997901917,0.95654296875,0.06689453125,-0.068359375,790.201666633288,790.2000000476837,1.6665856043118765,-2.01416015625,-2.01416015625,-1.03759765625
821.9749999046326,0.98681640625,0.3671875,-0.0625,790.206666747729,790.2050001621246,1.6665856043118765,-2.9296875,-1.0986328125,-6.8359375
821.9799997806549,1.0234375,-0.35107421875,0.1630859375,790.2116666237513,790.210000038147,1.6665856043118765,-4.33349609375,-2.44140625,4.57763671875
821.9849998950958,0.830078125,0.23681640625,-0.02587890625,790.2166667381922,790.2150001525879,1.6665856043118765,0.79345703125,-1.28173828125,-3.11279296875
821.9899997711182,1.109375,-0.5078125,-0.0341796875,790.2216666142145,790.2200000286102,1.6665856043118765,0.79345703125,-1.77001953125,4.39453125
821.9949998855591,0.90478515625,0.3037109375,-0.0869140625,790.2266667286555,790.2250001430511,1.6665856043118765,3.23486328125,-1.5869140625,-0.54931640625
822.0,0.66748046875,-0.02197265625,-0.01318359375,790.2316668430964,790.2300000190735,1.666824022890978,-3.84521484375,-2.3193359375,-4.94384765625
822.0049998760223,0.90234375,-0.17822265625,-0.00634765625,790.2366667191187,790.2350001335144,1.6665856043118765,-0.3662109375,-2.86865234375,2.50244140625
822.0099999904633,0.73681640625,0.0498046875,-0.01708984375,790.2416668335596,790.2400000095367,1.666824022890978,-3.72314453125,-2.01416015625,-3.35693359375
822.0149998664856,0.9765625,-0.19873046875,0.14453125,790.246666709582,790.2450001239777,1.6665856043118765,-3.7841796875,-2.685546875,0.732421875
822.0199999809265,0.57421875,-0.05078125,0.0,790.2516668240229,790.25,1.666824022890978,-2.685546875,-1.953125,-2.74658203125
822.0249998569489,0.89306640625,-0.30322265625,-0.01025390625,790.2566667000452,790.2550001144409,1.6665856043118765,-0.54931640625,-2.3193359375,2.685546875
822.0299999713898,0.67578125,0.16748046875,-0.087890625,790.2616668144861,790.2599999904633,1.666824022890978,-0.3662109375,-2.5634765625,0.0
822.0349998474121,0.75634765625,-0.3046875,-0.0888671875,790.2666666905085,790.2650001049042,1.6665856043118765,-0.8544921875,-2.62451171875,-0.48828125
822.039999961853,0.7646484375,0.181640625,-0.0576171875,790.2716668049494,790.2699999809265,1.666824022890978,-1.28173828125,-2.25830078125,-2.99072265625
822.0449998378754,0.6259765625,-0.26611328125,0.00830078125,790.2766666809717,790.2750000953674,1.6665856043118765,-3.2958984375,-2.74658203125,-3.0517578125
822.0499999523163,0.82275390625,-0.14453125,-0.00927734375,790.2816667954127,790.2799999713898,1.666824022890978,-1.220703125,-2.5634765625,0.79345703125
822.0549998283386,0.73388671875,0.1494140625,0.02783203125,790.286666671435,790.2850000858307,1.6665856043118765,-5.79833984375,-2.44140625,-7.26318359375
822.0599999427795,0.94482421875,-0.244140625,0.2685546875,790.2916667858759,790.289999961853,1.666824022890978,-5.615234375,-2.8076171875,3.60107421875
822.0649998188019,0.619140625,0.2490234375,0.021484375,790.2966666618983,790.295000076294,1.6665856043118765,-0.54931640625,-1.89208984375,-2.99072265625
822.0699999332428,0.75927734375,-0.30419921875,-0.04345703125,790.3016667763392,790.2999999523163,1.666824022890978,-0.9765625,-2.44140625,0.30517578125
822.0749998092651,0.9736328125,-0.0546875,-0.0791015625,790.3066666523615,790.3050000667572,1.6665856043118765,-5.0048828125,-4.39453125,0.244140625
822.079999923706,0.66015625,0.013671875,-0.08837890625,790.3116667668024,790.3099999427795,1.666824022890978,-3.72314453125,-2.25830078125,-9.3994140625
822.0849997997284,0.8740234375,-0.26416015625,0.1044921875,790.3166666428248,790.3150000572205,1.6665856043118765,-9.70458984375,-5.0048828125,0.3662109375
822.0899999141693,0.73095703125,0.220703125,0.00732421875,790.3216667572657,790.3200001716614,1.6665856043118765,-3.5400390625,-2.685546875,-5.615234375
822.0949997901917,0.88232421875,-0.28564453125,0.0048828125,790.326666633288,790.3250000476837,1.6665856043118765,-3.0517578125,-3.35693359375,5.9814453125
822.0999999046326,0.7041015625,-0.05517578125,-0.11181640625,790.331666747729,790.3300001621246,1.6665856043118765,0.91552734375,-2.8076171875,0.9765625
822.1049997806549,0.80615234375,-0.19921875,-0.08935546875,790.3366666237513,790.335000038147,1.6665856043118765,-1.89208984375,-3.35693359375,-1.0986328125
822.1099998950958,0.93994140625,0.0166015625,-0.00927734375,790.3416667381922,790.3400001525879,1.6665856043118765,-4.5166015625,-3.41796875,-5.2490234375
822.1149997711182,1.02099609375,-0.14306640625,0.16748046875,790.3466666142145,790.3450000286102,1.6665856043118765,-6.65283203125,-4.33349609375,3.96728515625
822.1199998855591,0.875,0.07568359375,0.05908203125,790.3516667286555,790.3500001430511,1.6665856043118765,-1.40380859375,-2.86865234375,-6.103515625
822.125,0.7431640625,-0.0634765625,-0.0234375,790.3566668430964,790.3550000190735,1.666824022890978,-2.86865234375,-2.44140625,-3.96728515625
822.1299998760223,0.99951171875,-0.0693359375,-0.12060546875,790.3616667191187,790.3600001335144,1.6665856043118765,0.8544921875,-4.21142578125,4.08935546875
822.1349999904633,0.8720703125,-0.0537109375,-0.13623046875,790.3666668335596,790.3650000095367,1.666824022890978,-4.21142578125,-2.3193359375,-7.01904296875
822.1399998664856,0.95751953125,-0.11572265625,0.0166015625,790.371666709582,790.3700001239777,1.6665856043118765,-8.056640625,-5.06591796875,2.44140625
822.1449999809265,0.7578125,0.16357421875,-0.0341796875,790.3766668240229,790.375,1.666824022890978,-4.638671875,-2.50244140625,-7.38525390625
822.1499998569489,0.93408203125,-0.20947265625,-0.009765625,790.3816667000452,790.3800001144409,1.6665856043118765,-2.99072265625,-3.47900390625,-3.90625
822.1549999713898,1.052734375,-0.2451171875,-0.09228515625,790.3866668144861,790.3849999904633,1.666824022890978,-2.01416015625,-4.82177734375,7.14111328125
822.1599998474121,0.90966796875,0.1484375,-0.10595703125,790.3916666905085,790.3900001049042,1.6665856043118765,-3.662109375,-3.173828125,-6.7138671875
822.164999961853,1.2646484375,-0.31005859375,-0.01611328125,790.3966668049494,790.3949999809265,1.666824022890978,-3.11279296875,-4.7607421875,5.4931640625
822.1699998378754,0.94873046875,0.224609375,-0.1123046875,790.4016666809717,790.4000000953674,1.6665856043118765,-1.89208984375,-2.9296875,-4.638671875
822.1749999523163,0.97509765625,-0.29248046875,-0.0166015625,790.4066667954127,790.4049999713898,1.666824022890978,-2.38037109375,-3.47900390625,0.91552734375
822.1799998283386,0.869140625,0.11669921875,-0.103515625,790.411666671435,790.4100000858307,1.6665856043118765,-2.01416015625,-3.47900390625,-1.708984375
822.1849999427795,1.0732421875,-0.2841796875,0.0419921875,790.4166667858759,790.414999961853,1.666824022890978,-1.220703125,-3.662109375,1.52587890625
822.1899998188019,0.97314453125,0.2255859375,-0.05322265625,790.4216666618983,790.420000076294,1.6665856043118765,-1.5869140625,-3.7841796875,-2.9296875
822.1949999332428,0.9921875,-0.17578125,-0.00048828125,790.4266667763392,790.4249999523163,1.666824022890978,-4.33349609375,-3.90625,-6.04248046875
822.1999998092651,1.16650390625,-0.2919921875,-0.0322265625,790.4316666523615,790.4300000667572,1.6665856043118765,-0.6103515625,-4.2724609375,3.662109375
822.204999923706,1.00341796875,0.0068359375,-0.1181640625,790.4366667668024,790.4349999427795,1.666824022890978,-2.685546875,-3.84521484375,-0.3662109375
822.2099997997284,1.1416015625,-0.0205078125,-0.1259765625,790.4416666428248,790.4400000572205,1.6665856043118765,-2.50244140625,-4.39453125,-0.18310546875
822.2149999141693,1.06640625,0.15478515625,-0.0166015625,790.4466667572657,790.4450001716614,1.6665856043118765,-4.57763671875,-3.72314453125,-5.9814453125
822.2199997901917,1.15576171875,-0.27783203125,0.10888671875,790.451666633288,790.4500000476837,1.6665856043118765,-1.77001953125,-3.96728515625,3.96728515625
822.2249999046326,0.9296875,0.2158203125,-0.0390625,790.456666747729,790.4550001621246,1.6665856043118765,-1.40380859375,-3.662109375,-5.92041015625
822.2299997806549,1.16162109375,-0.34619140625,-0.08544921875,790.4616666237513,790.460000038147,1.6665856043118765,-0.42724609375,-3.84521484375,-0.8544921875
822.2349998950958,0.9833984375,0.10546875,-0.17333984375,790.4666667381922,790.4650001525879,1.6665856043118765,-1.03759765625,-3.5400390625,-3.0517578125
822.2399997711182,1.3203125,-0.31298828125,-0.19287109375,790.4716666142145,790.4700000286102,1.6665856043118765,0.244140625,-3.47900390625,2.9296875
822.2449998855591,1.01708984375,0.2470703125,-0.04931640625,790.4766667286555,790.4750001430511,1.6665856043118765,-2.13623046875,-3.173828125,-2.99072265625
822.25,0.9580078125,0.25927734375,0.0546875,790.4816668430964,790.4800000190735,1.666824022890978,-8.97216796875,-2.685546875,-11.41357421875
822.2549998760223,1.23681640625,-0.2666015625,0.1337890625,790.4866667191187,790.4850001335144,1.6665856043118765,-2.8076171875,-3.662109375,5.55419921875
822.2599999904633,0.91650390625,-0.09130859375,-0.0380859375,790.4916668335596,790.4900000095367,1.666824022890978,1.708984375,-2.38037109375,-1.220703125
822.2649998664856,1.259765625,-0.2177734375,-0.2568359375,790.496666709582,790.4950001239777,1.6665856043118765,3.60107421875,-2.9296875,3.60107421875
822.2699999809265,1.0810546875,0.12939453125,-0.271484375,790.5016668240229,790.5,1.666824022890978,2.685546875,-2.62451171875,-2.44140625
822.2749998569489,0.94873046875,0.11279296875,-0.00341796875,790.5066667000452,790.5050001144409,1.6665856043118765,-7.9345703125,-4.08935546875,-11.962890625
822.2799999713898,1.33984375,-0.22509765625,0.19970703125,790.5116668144861,790.5099999904633,1.666824022890978,-6.77490234375,-5.43212890625,5.37109375
822.2849998474121,0.77587890625,0.064453125,0.00439453125,790.5166666905085,790.5150001049042,1.6665856043118765,-1.15966796875,-3.23486328125,-2.86865234375
822.289999961853,1.3583984375,-0.3623046875,-0.115234375,790.5216668049494,790.5199999809265,1.666824022890978,1.5869140625,-3.5400390625,3.72314453125
822.2949998378754,1.0205078125,0.2744140625,-0.1689453125,790.5266666809717,790.5250000953674,1.6665856043118765,0.91552734375,-1.8310546875,-5.06591796875
822.2999999523163,1.10107421875,-0.375,0.048828125,790.5316667954127,790.5299999713898,1.666824022890978,-4.5166015625,-3.72314453125,3.60107421875
822.3049998283386,0.99658203125,0.3623046875,-0.05419921875,790.536666671435,790.5350000858307,1.6665856043118765,-1.40380859375,-2.50244140625,-4.638671875
822.3099999427795,0.9892578125,-0.2265625,0.0283203125,790.5416667858759,790.539999961853,1.666824022890978,-2.99072265625,-2.9296875,4.8828125
822.3149998188019,1.01025390625,0.08251953125,-0.13720703125,790.5466666618983,790.545000076294,1.6665856043118765,-0.30517578125,-3.0517578125,-1.15966796875
822.3199999332428,1.08251953125,-0.11669921875,-0.19775390625,790.5516667763392,790.5499999523163,1.666824022890978,-0.79345703125,-2.3193359375,-1.708984375
822.3249998092651,1.19580078125,-0.13671875,-0.0458984375,790.5566666523615,790.5550000667572,1.6665856043118765,-6.591796875,-4.8828125,4.150390625
822.329999923706,1.0087890625,0.125,-0.06103515625,790.5616667668024,790.5599999427795,1.666824022890978,-6.04248046875,-3.35693359375,-7.38525390625
822.3349997997284,1.330078125,-0.11865234375,0.048828125,790.5666666428248,790.5650000572205,1.6665856043118765,-5.615234375,-4.5166015625,2.01416015625
822.3399999141693,0.92626953125,0.12744140625,-0.02001953125,790.5716667572657,790.5700001716614,1.6665856043118765,-4.69970703125,-3.11279296875,-1.28173828125
822.3449997901917,1.392578125,-0.2490234375,-0.06396484375,790.576666633288,790.5750000476837,1.6665856043118765,-2.0751953125,-3.7841796875,0.91552734375
822.3499999046326,1.21875,-0.0869140625,-0.1455078125,790.581666747729,790.5800001621246,1.6665856043118765,-1.89208984375,-4.7607421875,7.62939453125
822.3549997806549,1.0849609375,0.13818359375,-0.16455078125,790.5866666237513,790.585000038147,1.6665856043118765,-3.41796875,-2.5634765625,-5.67626953125
822.3599998950958,1.3046875,-0.255859375,-0.064453125,790.5916667381922,790.5900001525879,1.6665856043118765,-6.103515625,-5.67626953125,6.9580078125
822.3649997711182,1.05712890625,0.1298828125,-0.06689453125,790.5966666142145,790.5950000286102,1.6665856043118765,-4.21142578125,-3.47900390625,-2.99072265625
822.3699998855591,1.19189453125,-0.10791015625,0.02783203125,790.6016667286555,790.6000001430511,1.6665856043118765,-3.7841796875,-3.84521484375,-0.06103515625
822.375,1.0595703125,0.244140625,-0.06787109375,790.6066668430964,790.6050000190735,1.666824022890978,-2.62451171875,-2.62451171875,-1.708984375
822.3799998760223,1.13330078125,-0.29443359375,0.02099609375,790.6116667191187,790.6100001335144,1.6665856043118765,-1.46484375,-3.35693359375,4.5166015625
822.3849999904633,0.97998046875,0.31591796875,-0.11279296875,790.6166668335596,790.6150000095367,1.666824022890978,0.06103515625,-2.44140625,-3.35693359375
822.3899998664856,1.1455078125,-0.37451171875,-0.07666015625,790.621666709582,790.6200001239777,1.6665856043118765,-1.708984375,-3.35693359375,5.06591796875
822.3949999809265,0.92822265625,0.12890625,-0.044921875,790.6266668240229,790.625,1.666824022890978,-1.77001953125,-3.173828125,-0.3662109375
822.3999998569489,1.0693359375,0.30712890625,-0.02392578125,790.6316667000452,790.6300001144409,1.6665856043118765,-2.8076171875,-2.8076171875,-3.2958984375
822.4049999713898,1.09765625,-0.26123046875,0.11328125,790.6366668144861,790.6349999904633,1.666824022890978,-4.8828125,-3.35693359375,-1.40380859375
822.4099998474121,0.9873046875,0.1865234375,0.00830078125,790.6416666905085,790.6400001049042,1.6665856043118765,-3.72314453125,-3.35693359375,1.46484375
822.414999961853,1.02880859375,-0.265625,-0.08056640625,790.6466668049494,790.6449999809265,1.666824022890978,-1.5869140625,-2.38037109375,-0.79345703125
822.4199998378754,0.93896484375,-0.00244140625,-0.16552734375,790.6516666809717,790.6500000953674,1.6665856043118765,-0.91552734375,-2.50244140625,3.96728515625
822.4249999523163,0.8876953125,0.18212890625,-0.0537109375,790.6566667954127,790.6549999713898,1.666824022890978,-5.55419921875,-2.685546875,-6.77490234375
822.4299998283386,1.154296875,-0.25048828125,0.10595703125,790.661666671435,790.6600000858307,1.6665856043118765,-5.06591796875,-3.96728515625,5.92041015625
822.4349999427795,0.865234375,0.42578125,-0.01171875,790.6666667858759,790.664999961853,1.666824022890978,-3.7841796875,-2.50244140625,-2.01416015625
822.4399998188019,0.94287109375,-0.40869140625,0.0703125,790.6716666618983,790.670000076294,1.6665856043118765,-4.0283203125,-3.41796875,8.7890625
822.4449999332428,0.8916015625,0.21923828125,-0.146484375,790.6766667763392,790.6749999523163,1.666824022890978,5.06591796875,-2.3193359375,0.18310546875
822.4499998092651,1.294921875,-0.298828125,-0.2158203125,790.6816666523615,790.6800000667572,1.6665856043118765,-4.5166015625,-4.33349609375,6.591796875
822.454999923706,1.0126953125,0.21630859375,-0.09814453125,790.6866667668024,790.6849999427795,1.666824022890978,-2.62451171875,-2.5634765625,-2.9296875
822.4599997997284,0.9521484375,-0.2236328125,0.05126953125,790.6916666428248,790.6900000572205,1.6665856043118765,-6.89697265625,-3.11279296875,-1.8310546875
822.4649999141693,0.98388671875,0.33203125,-0.0107421875,790.6966667572657,790.6950001716614,1.6665856043118765,-2.86865234375,-3.35693359375,-3.72314453125
822.4699997901917,0.9921875,-0.17431640625,0.01708984375,790.701666633288,790.7000000476837,1.6665856043118765,-3.23486328125,-2.74658203125,-0.79345703125
822.4749999046326,0.9208984375,-0.16064453125,-0.12890625,790.706666747729,790.7050001621246,1.6665856043118765,-2.685546875,-2.8076171875,1.953125
822.4799997806549,0.8828125,0.05322265625,-0.06396484375,790.7116666237513,790.710000038147,1.6665856043118765,-3.47900390625,-2.5634765625,-1.64794921875
822.4849998950958,1.12744140625,-0.24365234375,-0.017578125,790.7166667381922,790.7150001525879,1.6665856043118765,-2.50244140625,-2.9296875,6.8359375
822.4899997711182,0.94873046875,0.2890625,-0.091796875,790.7216666142145,790.7200000286102,1.6665856043118765,-2.197265625,-0.9765625,-3.41796875
822.4949998855591,0.97021484375,-0.2646484375,-0.11669921875,790.7266667286555,790.7250001430511,1.6665856043118765,-1.40380859375,-1.953125,6.53076171875
822.5,1.1103515625,0.20166015625,-0.087890625,790.7316668430964,790.7300000190735,1.666824022890978,-3.7841796875,-2.38037109375,0.79345703125
822.5049998760223,0.78955078125,-0.2470703125,-0.03076171875,790.7366667191187,790.7350001335144,1.6665856043118765,-4.150390625,-1.3427734375,-4.39453125
822.5099999904633,1.12353515625,-0.08056640625,0.05322265625,790.7416668335596,790.7400000095367,1.666824022890978,-9.8876953125,-3.47900390625,5.0048828125
822.5149998664856,0.96533203125,0.08935546875,0.01708984375,790.746666709582,790.7450001239777,1.6665856043118765,-6.7138671875,-1.0986328125,-5.0048828125
822.5199999809265,1.328125,-0.1767578125,-0.10302734375,790.7516668240229,790.75,1.666824022890978,-2.99072265625,-3.23486328125,9.58251953125
822.5249998569489,0.8984375,0.0673828125,-0.1708984375,790.7566667000452,790.7550001144409,1.6665856043118765,-3.0517578125,-1.28173828125,0.30517578125
822.5299999713898,1.18408203125,-0.17138671875,-0.12744140625,790.7616668144861,790.7599999904633,1.666824022890978,-4.45556640625,-2.74658203125,3.47900390625
822.5349998474121,1.03662109375,0.3251953125,-0.12353515625,790.7666666905085,790.7650001049042,1.6665856043118765,-2.13623046875,-0.8544921875,-7.01904296875
822.539999961853,1.1484375,-0.49169921875,0.01220703125,790.7716668049494,790.7699999809265,1.666824022890978,-4.8828125,-2.74658203125,9.033203125
822.5449998378754,0.9208984375,0.35693359375,-0.13427734375,790.7766666809717,790.7750000953674,1.6665856043118765,1.03759765625,-0.30517578125,-2.01416015625
822.5499999523163,0.93701171875,-0.03955078125,-0.13818359375,790.7816667954127,790.7799999713898,1.666824022890978,-4.21142578125,-0.9765625,-4.21142578125
822.5549998283386,1.18359375,0.0771484375,-0.01171875,790.786666671435,790.7850000858307,1.6665856043118765,-8.544921875,-3.2958984375,3.662109375
822.5599999427795,0.91845703125,0.08984375,-0.10693359375,790.7916667858759,790.789999961853,1.666824022890978,-3.84521484375,-0.8544921875,-6.9580078125
822.5649998188019,1.1259765625,-0.26220703125,0.1015625,790.7966666618983,790.795000076294,1.6665856043118765,-13.12255859375,-4.57763671875,7.4462890625
822.5699999332428,0.9130859375,0.25732421875,-0.01171875,790.8016667763392,790.7999999523163,1.666824022890978,-3.5400390625,-0.91552734375,-5.18798828125
822.5749998092651,1.05712890625,-0.01416015625,-0.13525390625,790.8066666523615,790.8050000667572,1.6665856043118765,-2.01416015625,-0.8544921875,0.06103515625
822.579999923706,1.02197265625,-0.2275390625,-0.146484375,790.8116667668024,790.8099999427795,1.666824022890978,-3.662109375,-2.44140625,3.41796875
822.5849997997284,0.97216796875,0.0654296875,-0.12109375,790.8166666428248,790.8150000572205,1.6665856043118765,-2.44140625,-1.15966796875,-0.6103515625
822.5899999141693,1.10595703125,0.1171875,-0.01171875,790.8216667572657,790.8200001716614,1.6665856043118765,-7.50732421875,-2.86865234375,4.150390625
822.5949997901917,0.9951171875,0.0712890625,-0.00390625,790.826666633288,790.8250000476837,1.6665856043118765,-8.1787109375,-1.28173828125,-8.6669921875
822.5999999046326,1.11572265625,-0.18994140625,0.10205078125,790.831666747729,790.8300001621246,1.6665856043118765,-5.7373046875,-3.11279296875,8.9111328125
822.6049997806549,0.818359375,-0.04345703125,-0.06884765625,790.8366666237513,790.835000038147,1.6665856043118765,-1.3427734375,-0.54931640625,-5.4931640625
822.6099998950958,1.23974609375,-0.01025390625,-0.140625,790.8416667381922,790.8400001525879,1.6665856043118765,-3.7841796875,-2.74658203125,5.31005859375
822.6149997711182,0.9873046875,0.0244140625,-0.0947265625,790.8466666142145,790.8450000286102,1.6665856043118765,-5.7373046875,-1.3427734375,-4.0283203125
822.6199998855591,1.04052734375,-0.0390625,0.00537109375,790.8516667286555,790.8500001430511,1.6665856043118765,-7.568359375,-2.8076171875,4.0283203125
822.625,1.1435546875,0.248046875,-0.0888671875,790.8566668430964,790.8550000190735,1.666824022890978,-3.2958984375,-2.5634765625,4.45556640625
822.6299998760223,1.05419921875,-0.1953125,-0.09326171875,790.8616667191187,790.8600001335144,1.6665856043118765,-5.55419921875,-1.8310546875,-3.0517578125
822.6349999904633,1.09423828125,0.02490234375,-0.04541015625,790.8666668335596,790.8650000095367,1.666824022890978,-5.06591796875,-2.38037109375,2.13623046875
822.6399998664856,0.91259765625,-0.037109375,-0.00390625,790.871666709582,790.8700001239777,1.6665856043118765,-8.4228515625,-1.40380859375,-5.4931640625
822.6449999809265,1.150390625,0.0390625,0.06005859375,790.8766668240229,790.875,1.666824022890978,-8.544921875,-2.01416015625,0.67138671875
822.6499998569489,0.91552734375,0.0693359375,-0.0537109375,790.8816667000452,790.8800001144409,1.6665856043118765,-4.5166015625,-0.48828125,-1.953125
822.6549999713898,1.05859375,0.0537109375,-0.09375,790.8866668144861,790.8849999904633,1.666824022890978,-2.3193359375,-1.89208984375,8.60595703125
822.6599998474121,0.80859375,-0.02587890625,-0.23046875,790.8916666905085,790.8900001049042,1.6665856043118765,0.8544921875,0.244140625,-1.3427734375
822.664999961853,1.3603515625,-0.02392578125,-0.15087890625,790.8966668049494,790.8949999809265,1.666824022890978,-6.65283203125,-2.8076171875,5.615234375
822.6699998378754,0.97265625,0.013671875,-0.15234375,790.9016666809717,790.9000000953674,1.6665856043118765,-2.3193359375,0.30517578125,-7.32421875
822.6749999523163,1.0068359375,-0.228515625,0.08447265625,790.9066667954127,790.9049999713898,1.666824022890978,-8.48388671875,-1.0986328125,-6.34765625
822.6799998283386,1.2001953125,0.1552734375,0.083984375,790.911666671435,790.9100000858307,1.6665856043118765,-7.87353515625,-1.953125,-0.06103515625
822.6849999427795,1.140625,-0.052734375,-0.0791015625,790.9166667858759,790.914999961853,1.666824022890978,-0.1220703125,-0.30517578125,0.244140625
822.6899998188019,1.037109375,-0.03515625,-0.21826171875,790.9216666618983,790.920000076294,1.6665856043118765,1.708984375,-0.18310546875,4.2724609375
822.6949999332428,0.95263671875,-0.025390625,-0.232421875,790.9266667763392,790.9249999523163,1.666824022890978,-1.40380859375,0.18310546875,-1.03759765625
822.6999998092651,1.31787109375,-0.345703125,-0.052734375,790.9316666523615,790.9300000667572,1.6665856043118765,-6.65283203125,-1.5869140625,3.96728515625
822.704999923706,1.17919921875,0.38232421875,-0.02978515625,790.9366667668024,790.9349999427795,1.666824022890978,-6.53076171875,0.06103515625,-4.33349609375
822.7099997997284,1.06591796875,-0.36328125,0.0810546875,790.9416666428248,790.9400000572205,1.6665856043118765,-5.9814453125,-0.48828125,0.8544921875
822.7149999141693,1.10546875,0.22705078125,-0.080078125,790.9466667572657,790.9450001716614,1.6665856043118765,0.54931640625,0.244140625,3.35693359375
822.7199997901917,1.12841796875,-0.28759765625,-0.0947265625,790.951666633288,790.9500000476837,1.6665856043118765,-1.03759765625,1.03759765625,1.0986328125
822.7249999046326,1.14794921875,0.13427734375,-0.0185546875,790.956666747729,790.9550001621246,1.6665856043118765,-4.57763671875,-0.67138671875,6.591796875
822.7299997806549,1.07861328125,-0.0712890625,-0.06396484375,790.9616666237513,790.960000038147,1.6665856043118765,-6.7138671875,0.48828125,-4.7607421875
822.7349998950958,1.30419921875,0.14990234375,-0.0732421875,790.9666667381922,790.9650001525879,1.6665856043118765,-5.7373046875,-1.220703125,6.2255859375
822.7399997711182,1.10107421875,-0.11572265625,-0.142578125,790.9716666142145,790.9700000286102,1.6665856043118765,-6.2255859375,0.48828125,-2.86865234375
822.7449998855591,1.17578125,-0.03564453125,-0.1142578125,790.9766667286555,790.9750001430511,1.6665856043118765,-6.7138671875,-0.732421875,3.7841796875
822.75,1.0859375,0.3623046875,-0.09765625,790.9816668430964,790.9800000190735,1.666824022890978,-0.18310546875,0.732421875,-1.28173828125
822.7549998760223,0.98046875,-0.3642578125,0.01123046875,790.9866667191187,790.9850001335144,1.6665856043118765,-4.21142578125,0.244140625,5.2490234375
822.7599999904633,0.93701171875,0.30078125,-0.00048828125,790.9916668335596,790.9900000095367,1.666824022890978,-1.64794921875,0.79345703125,0.8544921875
822.7649998664856,0.83642578125,-0.38818359375,-0.0517578125,790.996666709582,790.9950001239777,1.6665856043118765,-3.96728515625,-0.18310546875,-2.0751953125
822.7699999809265,1.03857421875,0.2421875,-0.07666015625,791.0016668240229,791.0,1.666824022890978,-0.732421875,0.18310546875,1.15966796875
822.7749998569489,0.93408203125,0.18359375,-0.205078125,791.0066667000452,791.0050001144409,1.6665856043118765,-1.64794921875,1.5869140625,-5.37109375
822.7799999713898,1.052734375,-0.25439453125,0.02294921875,791.0116668144861,791.0099999904633,1.666824022890978,-13.7939453125,-2.8076171875,7.568359375
822.7849998474121,0.82421875,0.29541015625,-0.05712890625,791.0166666905085,791.0150001049042,1.6665856043118765,-4.2724609375,0.48828125,-4.94384765625
822.789999961853,1.03662109375,-0.380859375,-0.01611328125,791.0216668049494,791.0199999809265,1.666824022890978,-5.0048828125,-1.28173828125,13.61083984375
822.7949998378754,0.68994140625,0.0380859375,-0.10986328125,791.0266666809717,791.0250000953674,1.6665856043118765,-2.3193359375,0.48828125,-0.06103515625
822.7999999523163,0.7958984375,-0.33154296875,-0.15087890625,791.0316667954127,791.0299999713898,1.666824022890978,-0.42724609375,0.1220703125,4.94384765625
822.8049998283386,0.83349609375,0.18505859375,-0.0703125,791.036666671435,791.0350000858307,1.6665856043118765,-3.96728515625,0.1220703125,-2.5634765625
822.8099999427795,1.0615234375,-0.26220703125,0.1376953125,791.0416667858759,791.039999961853,1.666824022890978,-8.056640625,-0.244140625,3.72314453125
822.8149998188019,0.94482421875,0.2509765625,0.0048828125,791.0466666618983,791.045000076294,1.6665856043118765,-3.11279296875,0.48828125,4.08935546875
822.8199999332428,0.732421875,-0.3046875,-0.00048828125,791.0516667763392,791.0499999523163,1.666824022890978,-2.5634765625,0.6103515625,2.8076171875
822.8249998092651,1.109375,-0.2255859375,-0.15771484375,791.0566666523615,791.0550000667572,1.6665856043118765,-5.4931640625,-1.220703125,7.01904296875
822.829999923706,0.72607421875,0.07177734375,-0.12451171875,791.0616667668024,791.0599999427795,1.666824022890978,-3.60107421875,1.40380859375,-5.18798828125
822.8349997997284,0.96533203125,-0.32080078125,0.06884765625,791.0666666428248,791.0650000572205,1.6665856043118765,-9.09423828125,-0.732421875,1.77001953125
822.8399999141693,0.75439453125,0.33984375,0.04052734375,791.0716667572657,791.0700001716614,1.6665856043118765,-7.9345703125,0.3662109375,0.3662109375
822.8449997901917,0.98388671875,-0.2890625,0.193359375,791.076666633288,791.0750000476837,1.6665856043118765,-7.50732421875,-0.06103515625,4.150390625
822.8499999046326,0.994140625,-0.07177734375,-0.1328125,791.081666747729,791.0800001621246,1.6665856043118765,0.79345703125,0.244140625,6.40869140625
822.8549997806549,0.8974609375,0.0537109375,-0.185546875,791.0866666237513,791.085000038147,1.6665856043118765,-2.01416015625,0.67138671875,-2.5634765625
822.8599998950958,1.0830078125,-0.16162109375,-0.05908203125,791.0916667381922,791.0900001525879,1.6665856043118765,-7.99560546875,-1.52587890625,6.103515625
822.8649997711182,0.91748046875,0.173828125,-0.13525390625,791.0966666142145,791.0950000286102,1.6665856043118765,-3.5400390625,0.42724609375,-6.28662109375
822.8699998855591,1.20947265625,-0.3017578125,0.05517578125,791.1016667286555,791.1000001430511,1.6665856043118765,-8.9111328125,-2.38037109375,7.38525390625
822.875,0.9072265625,0.13818359375,-0.0517578125,791.1066668430964,791.1050000190735,1.666824022890978,-4.5166015625,0.0,-2.01416015625
822.8799998760223,1.43115234375,-0.30224609375,-0.0888671875,791.1116667191187,791.1100001335144,1.6665856043118765,-2.25830078125,-1.28173828125,9.46044921875
822.8849999904633,1.08935546875,0.23876953125,-0.13818359375,791.1166668335596,791.1150000095367,1.666824022890978,-2.197265625,0.18310546875,-2.86865234375
822.8899998664856,1.1064453125,-0.3515625,-0.103515625,791.121666709582,791.1200001239777,1.6665856043118765,-1.953125,-0.54931640625,6.4697265625
822.8949999809265,0.99853515625,0.2919921875,-0.18505859375,791.1266668240229,791.125,1.666824022890978,-0.244140625,0.9765625,-4.45556640625
822.8999998569489,1.0458984375,-0.07958984375,-0.08642578125,791.1316667000452,791.1300001144409,1.6665856043118765,-5.18798828125,-0.1220703125,-0.67138671875
822.9049999713898,1.22509765625,-0.11474609375,-0.07080078125,791.1366668144861,791.1349999904633,1.666824022890978,-5.31005859375,-1.28173828125,4.82177734375
822.9099998474121,1.0634765625,0.19384765625,-0.083984375,791.1416666905085,791.1400001049042,1.6665856043118765,-5.55419921875,0.67138671875,-5.9814453125
822.914999961853,1.41845703125,-0.25146484375,-0.00048828125,791.1466668049494,791.1449999809265,1.666824022890978,-6.53076171875,-1.5869140625,7.26318359375
822.9199998378754,1.09716796875,0.248046875,-0.16357421875,791.1516666809717,791.1500000953674,1.6665856043118765,-2.0751953125,0.9765625,-2.8076171875
822.9249999523163,0.998046875,-0.21630859375,-0.22021484375,791.1566667954127,791.1549999713898,1.666824022890978,-2.9296875,0.54931640625,-0.8544921875
822.9299998283386,1.365234375,0.14697265625,-0.150390625,791.161666671435,791.1600000858307,1.6665856043118765,-2.74658203125,-0.18310546875,0.732421875
822.9349999427795,1.09716796875,-0.2568359375,-0.140625,791.1666667858759,791.164999961853,1.666824022890978,-2.38037109375,0.67138671875,-1.28173828125
822.9399998188019,1.345703125,0.1875,-0.0185546875,791.1716666618983,791.170000076294,1.6665856043118765,-7.62939453125,-1.708984375,3.41796875
822.9449999332428,0.9599609375,-0.04248046875,0.0107421875,791.1766667763392,791.1749999523163,1.666824022890978,-7.2021484375,0.0,-5.615234375
822.9499998092651,1.43994140625,-0.22314453125,0.0263671875,791.1816666523615,791.1800000667572,1.6665856043118765,-7.50732421875,-2.38037109375,8.72802734375
822.954999923706,1.05517578125,0.00732421875,-0.14306640625,791.1866667668024,791.1849999427795,1.666824022890978,-2.50244140625,0.6103515625,3.60107421875
822.9599997997284,1.177734375,-0.01416015625,-0.1416015625,791.1916666428248,791.1900000572205,1.6665856043118765,-5.126953125,-0.18310546875,3.5400390625
822.9649999141693,1.02978515625,-0.0146484375,-0.0908203125,791.1966667572657,791.1950001716614,1.6665856043118765,-5.37109375,0.67138671875,-3.662109375
822.9699997901917,1.1875,-0.001953125,-0.02294921875,791.201666633288,791.2000000476837,1.6665856043118765,-5.79833984375,-1.3427734375,8.6669921875
822.9749999046326,1.0361328125,0.1064453125,0.0,791.206666747729,791.2050001621246,1.6665856043118765,-5.615234375,-0.3662109375,4.8828125
822.9799997806549,0.958984375,-0.1923828125,-0.09228515625,791.2116666237513,791.210000038147,1.6665856043118765,-4.21142578125,0.0,-0.3662109375
822.9849998950958,0.98974609375,0.1083984375,-0.169921875,791.2166667381922,791.2150001525879,1.6665856043118765,0.91552734375,0.06103515625,3.60107421875
822.9899997711182,0.85888671875,-0.298828125,-0.11181640625,791.2216666142145,791.2200000286102,1.6665856043118765,-2.5634765625,1.0986328125,-1.953125
822.9949998855591,0.96533203125,-0.015625,0.02490234375,791.2266667286555,791.2250001430511,1.6665856043118765,-9.70458984375,-1.46484375,5.67626953125
823.0,0.88818359375,0.1083984375,0.0693359375,791.2316668430964,791.2300000190735,1.666824022890978,-9.33837890625,1.03759765625,-8.30078125
823.0049998760223,1.27197265625,-0.19287109375,0.1591796875,791.2366667191187,791.2350001335144,1.6665856043118765,-4.8828125,-1.220703125,6.4697265625
823.0099999904633,0.85986328125,-0.09423828125,-0.00830078125,791.2416668335596,791.2400000095367,1.666824022890978,0.48828125,1.5869140625,0.42724609375
823.0149998664856,1.177734375,-0.20458984375,-0.115234375,791.246666709582,791.2450001239777,1.6665856043118765,-0.3662109375,0.0,11.3525390625
823.0199999809265,0.90185546875,0.08837890625,-0.09521484375,791.2516668240229,791.25,1.666824022890978,-4.08935546875,0.67138671875,-2.25830078125
823.0249998569489,0.94140625,-0.18701171875,-0.0166015625,791.2566667000452,791.2550001144409,1.6665856043118765,-5.9814453125,0.30517578125,-3.41796875
823.0299999713898,1.04638671875,-0.2822265625,-0.0263671875,791.2616668144861,791.2599999904633,1.666824022890978,-6.34765625,-2.3193359375,10.1318359375
823.0349998474121,0.7958984375,-0.1728515625,-0.091796875,791.2666666905085,791.2650001049042,1.6665856043118765,-2.5634765625,0.6103515625,-2.86865234375
823.039999961853,1.17724609375,-0.197265625,-0.04638671875,791.2716668049494,791.2699999809265,1.666824022890978,-8.23974609375,-2.9296875,8.60595703125
823.0449998378754,0.86669921875,-0.1181640625,-0.0927734375,791.2766666809717,791.2750000953674,1.6665856043118765,-2.62451171875,0.30517578125,-6.34765625
823.0499999523163,0.96240234375,-0.1298828125,0.1484375,791.2816667954127,791.2799999713898,1.666824022890978,-6.28662109375,-1.03759765625,-2.50244140625
823.0549998283386,1.095703125,-0.0361328125,0.06396484375,791.286666671435,791.2850000858307,1.6665856043118765,-2.0751953125,-1.77001953125,3.47900390625
823.0599999427795,0.9306640625,0.01318359375,-0.033203125,791.2916667858759,791.289999961853,1.666824022890978,-2.99072265625,-0.6103515625,-0.91552734375
823.0649998188019,1.0849609375,-0.0439453125,-0.06640625,791.2966666618983,791.295000076294,1.6665856043118765,-1.28173828125,-1.40380859375,4.638671875
823.0699999332428,0.94384765625,0.13037109375,-0.14208984375,791.3016667763392,791.2999999523163,1.666824022890978,-1.77001953125,0.0,-2.74658203125
823.0749998092651,1.1533203125,-0.232421875,-0.18896484375,791.3066666523615,791.3050000667572,1.6665856043118765,-3.5400390625,-2.9296875,12.0849609375
823.079999923706,0.9541015625,0.166015625,-0.2080078125,791.3116667668024,791.3099999427795,1.666824022890978,-2.197265625,0.0,-6.7138671875
823.0849997997284,1.27978515625,-0.2802734375,-0.05224609375,791.3166666428248,791.3150000572205,1.6665856043118765,-10.07080078125,-4.638671875,13.61083984375
823.0899999141693,0.89013671875,0.10302734375,-0.1474609375,791.3216667572657,791.3200001716614,1.6665856043118765,-3.90625,-0.30517578125,-6.28662109375
823.0949997901917,1.5068359375,-0.19873046875,-0.00390625,791.326666633288,791.3250000476837,1.6665856043118765,-10.986328125,-4.08935546875,6.40869140625
823.0999999046326,1.11572265625,0.119140625,0.02685546875,791.331666747729,791.3300001621246,1.6665856043118765,-4.2724609375,-2.01416015625,5.9814453125
823.1049997806549,0.99658203125,-0.0751953125,-0.02099609375,791.3366666237513,791.335000038147,1.6665856043118765,-5.67626953125,-0.3662109375,-3.5400390625
823.1099998950958,1.42822265625,0.01123046875,-0.0458984375,791.3416667381922,791.3400001525879,1.6665856043118765,-6.103515625,-2.5634765625,6.8359375
823.1149997711182,0.90771484375,-0.0390625,-0.1240234375,791.3466666142145,791.3450000286102,1.6665856043118765,-4.57763671875,-0.67138671875,-0.48828125
823.1199998855591,1.09130859375,-0.2392578125,-0.177734375,791.3516667286555,791.3500001430511,1.6665856043118765,-3.0517578125,-1.64794921875,4.82177734375
823.125,1.18408203125,0.26611328125,-0.1162109375,791.3566668430964,791.3550000190735,1.666824022890978,-2.01416015625,-0.9765625,-1.0986328125
823.1299998760223,0.9501953125,-0.32080078125,-0.01708984375,791.3616667191187,791.3600001335144,1.6665856043118765,-2.9296875,-0.67138671875,2.50244140625
823.1349999904633,1.1162109375,0.298828125,0.0166015625,791.3666668335596,791.3650000095367,1.666824022890978,-3.35693359375,-0.8544921875,2.01416015625
823.1399998664856,0.94775390625,-0.34228515625,-0.033203125,791.371666709582,791.3700001239777,1.6665856043118765,-3.96728515625,-1.3427734375,-2.86865234375
823.1449999809265,1.0693359375,0.1689453125,-0.013671875,791.3766668240229,791.375,1.666824022890978,-2.99072265625,-0.91552734375,1.0986328125
823.1499998569489,0.91943359375,-0.25732421875,0.0009765625,791.3816667000452,791.3800001144409,1.6665856043118765,-4.638671875,-0.6103515625,-3.84521484375
823.1549999713898,0.99853515625,0.0322265625,-0.02490234375,791.3866668144861,791.3849999904633,1.666824022890978,-4.45556640625,-1.46484375,5.67626953125
823.1599998474121,1.015625,0.03466796875,-0.12060546875,791.3916666905085,791.3900001049042,1.6665856043118765,-0.91552734375,0.8544921875,-5.67626953125
823.164999961853,1.12890625,0.09375,0.00927734375,791.3966668049494,791.3949999809265,1.666824022890978,-8.23974609375,-3.41796875,9.27734375
823.1699998378754,0.87890625,-0.271484375,-0.16357421875,791.4016666809717,791.4000000953674,1.6665856043118765,-0.1220703125,0.1220703125,-1.28173828125
823.1749999523163,0.93994140625,-0.30029296875,-0.052734375,791.4066667954127,791.4049999713898,1.666824022890978,-4.150390625,-0.3662109375,0.79345703125
823.1799998283386,0.9326171875,0.16796875,0.03369140625,791.411666671435,791.4100000858307,1.6665856043118765,-7.99560546875,-1.3427734375,0.0
823.1849999427795,0.86865234375,0.00634765625,0.0810546875,791.4166667858759,791.414999961853,1.666824022890978,-8.11767578125,-0.42724609375,-6.40869140625
823.1899998188019,1.005859375,-0.07958984375,0.06201171875,791.4216666618983,791.420000076294,1.6665856043118765,-4.2724609375,-2.25830078125,9.521484375
823.1949999332428,0.58203125,-0.1103515625,-0.09423828125,791.4266667763392,791.4249999523163,1.666824022890978,0.8544921875,0.48828125,-3.2958984375
823.1999998092651,0.96337890625,-0.29052734375,-0.30419921875,791.4316666523615,791.4300000667572,1.6665856043118765,-0.8544921875,-1.8310546875,8.97216796875
823.204999923706,0.7470703125,0.17041015625,-0.0908203125,791.4366667668024,791.4349999427795,1.666824022890978,-2.99072265625,-0.79345703125,-2.99072265625
823.2099997997284,0.71728515625,-0.2841796875,0.07666015625,791.4416666428248,791.4400000572205,1.6665856043118765,-13.61083984375,-1.708984375,-3.90625
823.2149999141693,0.90966796875,0.18798828125,0.10205078125,791.4466667572657,791.4450001716614,1.6665856043118765,-8.9111328125,-2.74658203125,1.46484375
823.2199997901917,0.685546875,-0.12841796875,0.03662109375,791.451666633288,791.4500000476837,1.6665856043118765,-2.9296875,-1.46484375,2.99072265625
823.2249999046326,0.76611328125,-0.05908203125,-0.04736328125,791.456666747729,791.4550001621246,1.6665856043118765,-0.9765625,-1.77001953125,-0.9765625
823.2299997806549,0.83837890625,-0.0107421875,-0.07958984375,791.4616666237513,791.460000038147,1.6665856043118765,-1.5869140625,-1.220703125,-0.30517578125
823.2349998950958,0.9248046875,0.00634765625,0.00390625,791.4666667381922,791.4650001525879,1.6665856043118765,-4.45556640625,-2.0751953125,1.15966796875
823.2399997711182,0.83349609375,-0.0595703125,0.02685546875,791.4716666142145,791.4700000286102,1.6665856043118765,-5.92041015625,-1.40380859375,-4.2724609375
823.2449998855591,0.98779296875,-0.23291015625,-0.04638671875,791.4766667286555,791.4750001430511,1.6665856043118765,-1.3427734375,-2.62451171875,8.9111328125
823.25,0.81982421875,0.09228515625,-0.16943359375,791.4816668430964,791.4800000190735,1.666824022890978,2.0751953125,-0.79345703125,1.0986328125
823.2549998760223,1.02392578125,-0.396484375,-0.11083984375,791.4866667191187,791.4850001335144,1.6665856043118765,-1.40380859375,-1.5869140625,2.01416015625
823.2599999904633,0.943359375,0.1865234375,0.01025390625,791.4916668335596,791.4900000095367,1.666824022890978,-7.9345703125,-2.685546875,-1.15966796875
823.2649998664856,0.8740234375,-0.1865234375,0.1328125,791.496666709582,791.4950001239777,1.6665856043118765,-6.34765625,-1.77001953125,-4.7607421875
823.2699999809265,0.986328125,0.22314453125,0.0390625,791.5016668240229,791.5,1.666824022890978,-4.5166015625,-2.38037109375,0.0
823.2749998569489,0.98486328125,0.0048828125,-0.1640625,791.5066667000452,791.5050001144409,1.6665856043118765,2.50244140625,-0.91552734375,0.3662109375
823.2799999713898,1.22900390625,-0.1298828125,-0.26806640625,791.5116668144861,791.5099999904633,1.666824022890978,-0.6103515625,-2.38037109375,6.7138671875
823.2849998474121,1.0771484375,0.16796875,-0.20068359375,791.5166666905085,791.5150001049042,1.6665856043118765,0.18310546875,-0.9765625,-3.662109375
823.289999961853,1.2353515625,-0.490234375,-0.03271484375,791.5216668049494,791.5199999809265,1.666824022890978,-4.5166015625,-1.3427734375,-3.2958984375
823.2949998378754,1.16162109375,0.439453125,-0.08251953125,791.5266666809717,791.5250000953674,1.6665856043118765,0.244140625,-1.03759765625,-2.3193359375
823.2999999523163,1.1376953125,-0.27392578125,0.06005859375,791.5316667954127,791.5299999713898,1.666824022890978,-5.79833984375,-1.708984375,-6.7138671875
823.3049998283386,1.2451171875,0.13818359375,0.05224609375,791.536666671435,791.5350000858307,1.6665856043118765,-7.4462890625,-2.86865234375,1.89208984375
823.3099999427795,1.03662109375,-0.18505859375,-0.06787109375,791.5416667858759,791.539999961853,1.666824022890978,-4.2724609375,-1.15966796875,-3.96728515625
823.3149998188019,1.12451171875,0.0341796875,0.0048828125,791.5466666618983,791.545000076294,1.6665856043118765,-5.615234375,-2.62451171875,5.43212890625
823.3199999332428,1.0029296875,0.02978515625,-0.1630859375,791.5516667763392,791.5499999523163,1.666824022890978,-2.9296875,-0.67138671875,-1.5869140625
823.3249998092651,0.9736328125,-0.271484375,-0.0693359375,791.5566666523615,791.5550000667572,1.6665856043118765,-2.685546875,-1.220703125,0.244140625
823.329999923706,0.88671875,-0.025390625,-0.15869140625,791.5616667668024,791.5599999427795,1.666824022890978,-0.48828125,-1.46484375,1.5869140625
823.3349997997284,0.92138671875,-0.1669921875,-0.0927734375,791.5666666428248,791.5650000572205,1.6665856043118765,-3.0517578125,-0.9765625,-0.06103515625
823.3399999141693,0.97119140625,0.171875,-0.04345703125,791.5716667572657,791.5700001716614,1.6665856043118765,-3.7841796875,-1.77001953125,0.67138671875
823.3449997901917,0.97119140625,-0.21044921875,0.001953125,791.576666633288,791.5750000476837,1.6665856043118765,-3.90625,-1.0986328125,-4.69970703125
823.3499999046326,0.94287109375,0.20556640625,0.13623046875,791.581666747729,791.5800001621246,1.6665856043118765,-9.46044921875,-3.173828125,7.62939453125
823.3549997806549,0.7626953125,-0.27880859375,-0.02587890625,791.5866666237513,791.585000038147,1.6665856043118765,-1.64794921875,-0.42724609375,-4.39453125
823.3599998950958,1.06591796875,0.15283203125,-0.103515625,791.5916667381922,791.5900001525879,1.6665856043118765,2.13623046875,-1.15966796875,3.47900390625
823.3649997711182,0.69970703125,-0.24365234375,-0.12109375,791.5966666142145,791.5950000286102,1.6665856043118765,0.06103515625,-0.48828125,-1.77001953125
823.3699998855591,0.94287109375,-0.13232421875,0.0185546875,791.6016667286555,791.6000001430511,1.6665856043118765,-8.1787109375,-3.662109375,5.79833984375
823.375,0.6875,0.2734375,-0.005859375,791.6066668430964,791.6050000190735,1.666824022890978,-1.15966796875,-1.52587890625,0.9765625
823.3799998760223,0.64599609375,-0.2783203125,0.04150390625,791.6116667191187,791.6100001335144,1.6665856043118765,-3.0517578125,-1.5869140625,0.732421875
823.3849999904633,0.69580078125,0.0400390625,-0.02587890625,791.6166668335596,791.6150000095367,1.666824022890978,-3.47900390625,-1.8310546875,0.18310546875
823.3899998664856,0.72021484375,-0.18701171875,0.04931640625,791.621666709582,791.6200001239777,1.6665856043118765,-3.90625,-1.3427734375,-0.91552734375
823.3949999809265,0.72509765625,-0.0185546875,-0.0283203125,791.6266668240229,791.625,1.666824022890978,-2.62451171875,-1.64794921875,1.52587890625
823.3999998569489,0.70751953125,0.13916015625,-0.04736328125,791.6316667000452,791.6300001144409,1.6665856043118765,-2.44140625,-1.52587890625,1.28173828125
823.4049999713898,0.728515625,-0.3154296875,-0.05029296875,791.6366668144861,791.6349999904633,1.666824022890978,-2.86865234375,-1.52587890625,0.1220703125
823.4099998474121,0.671875,0.09375,-0.111328125,791.6416666905085,791.6400001049042,1.6665856043118765,2.50244140625,-1.220703125,3.2958984375
823.414999961853,0.80029296875,-0.40234375,-0.19677734375,791.6466668049494,791.6449999809265,1.666824022890978,-1.3427734375,-2.01416015625,5.67626953125
823.4199998378754,0.61669921875,0.21875,-0.001953125,791.6516666809717,791.6500000953674,1.6665856043118765,-5.06591796875,-1.953125,-5.18798828125
823.4249999523163,0.62060546875,-0.31103515625,0.14306640625,791.6566667954127,791.6549999713898,1.666824022890978,-7.32421875,-2.74658203125,-0.9765625
823.4299998283386,0.8193359375,0.111328125,0.03857421875,791.661666671435,791.6600000858307,1.6665856043118765,-3.41796875,-2.50244140625,-1.89208984375
823.4349999427795,0.71533203125,-0.091796875,-0.0166015625,791.6666667858759,791.664999961853,1.666824022890978,0.1220703125,-1.64794921875,2.74658203125
823.4399998188019,0.6337890625,-0.0166015625,-0.134765625,791.6716666618983,791.670000076294,1.6665856043118765,0.18310546875,-1.77001953125,2.3193359375
823.4449999332428,0.7490234375,-0.169921875,-0.08154296875,791.6766667763392,791.6749999523163,1.666824022890978,-4.5166015625,-1.46484375,-5.9814453125
823.4499998092651,0.73388671875,-0.244140625,0.12158203125,791.6816666523615,791.6800000667572,1.6665856043118765,-4.69970703125,-2.3193359375,0.30517578125
823.454999923706,0.6875,0.14404296875,0.0361328125,791.6866667668024,791.6849999427795,1.666824022890978,-2.8076171875,-2.01416015625,2.01416015625
823.4599997997284,0.6513671875,-0.279296875,-0.0302734375,791.6916666428248,791.6900000572205,1.6665856043118765,-1.15966796875,-1.52587890625,-1.03759765625
823.4649999141693,0.69677734375,0.1279296875,-0.107421875,791.6966667572657,791.6950001716614,1.6665856043118765,1.220703125,-1.40380859375,1.40380859375
823.4699997901917,0.712890625,-0.17626953125,-0.11328125,791.701666633288,791.7000000476837,1.6665856043118765,-1.220703125,-1.3427734375,-2.99072265625
823.4749999046326,0.841796875,-0.23046875,-0.01611328125,791.706666747729,791.7050001621246,1.6665856043118765,-3.47900390625,-2.50244140625,0.67138671875
823.4799997806549,0.65087890625,0.26220703125,-0.05810546875,791.7116666237513,791.710000038147,1.6665856043118765,-0.91552734375,-1.28173828125,-2.99072265625
823.4849998950958,0.7998046875,-0.296875,-0.048828125,791.7166667381922,791.7150001525879,1.6665856043118765,-1.89208984375,-1.77001953125,1.953125
823.4899997711182,0.7900390625,0.02880859375,-0.16015625,791.7216666142145,791.7200000286102,1.6665856043118765,-0.67138671875,-1.64794921875,-1.3427734375
823.4949998855591,0.9150390625,-0.25,-0.16455078125,791.7266667286555,791.7250001430511,1.6665856043118765,-1.89208984375,-1.89208984375,1.46484375
823.5,0.8916015625,0.13720703125,-0.099609375,791.7316668430964,791.7300000190735,1.666824022890978,-1.64794921875,-0.9765625,-2.62451171875
823.5049998760223,1.04150390625,-0.21728515625,0.00732421875,791.7366667191187,791.7350001335144,1.6665856043118765,-3.41796875,-1.40380859375,-0.244140625
823.5099999904633,0.9072265625,0.11669921875,-0.0224609375,791.7416668335596,791.7400000095367,1.666824022890978,-2.197265625,-1.28173828125,2.44140625
823.5149998664856,0.8544921875,-0.3427734375,-0.1376953125,791.746666709582,791.7450001239777,1.6665856043118765,-0.67138671875,-0.79345703125,0.30517578125
823.5199999809265,1.01171875,0.1533203125,-0.19384765625,791.7516668240229,791.75,1.666824022890978,1.953125,-0.42724609375,-2.13623046875
823.5249998569489,0.9501953125,0.05615234375,-0.21337890625,791.7566667000452,791.7550001144409,1.6665856043118765,-0.9765625,0.18310546875,-7.75146484375
823.5299999713898,1.0908203125,-0.2109375,-0.03564453125,791.7616668144861,791.7599999904633,1.666824022890978,-12.39013671875,-3.11279296875,2.13623046875
823.5349998474121,0.95458984375,0.2578125,-0.0400390625,791.7666666905085,791.7650001049042,1.6665856043118765,-4.8828125,-0.30517578125,-5.859375
823.539999961853,1.11962890625,-0.25634765625,-0.02880859375,791.7716668049494,791.7699999809265,1.666824022890978,-1.5869140625,-0.48828125,-0.1220703125
823.5449998378754,0.8681640625,0.0615234375,-0.14453125,791.7766666809717,791.7750000953674,1.6665856043118765,1.40380859375,0.1220703125,0.79345703125
823.5499999523163,1.015625,0.1279296875,-0.21240234375,791.7816667954127,791.7799999713898,1.666824022890978,-0.42724609375,0.8544921875,-7.568359375
823.5549998283386,1.31689453125,-0.23095703125,-0.0517578125,791.786666671435,791.7850000858307,1.6665856043118765,-4.57763671875,-1.220703125,4.150390625
823.5599999427795,1.0029296875,0.28125,-0.09765625,791.7916667858759,791.789999961853,1.666824022890978,-3.47900390625,0.244140625,-8.11767578125
823.5649998188019,1.19189453125,-0.380859375,0.03173828125,791.7966666618983,791.795000076294,1.6665856043118765,-3.11279296875,-0.30517578125,-2.44140625
823.5699999332428,0.974609375,0.22216796875,-0.142578125,791.8016667763392,791.7999999523163,1.666824022890978,3.60107421875,0.67138671875,-0.3662109375
823.5749998092651,1.095703125,-0.40625,-0.1904296875,791.8066666523615,791.8050000667572,1.6665856043118765,0.3662109375,0.79345703125,-0.30517578125
823.579999923706,1.03955078125,0.20703125,-0.05029296875,791.8116667668024,791.8099999427795,1.666824022890978,-2.197265625,-0.54931640625,2.01416015625
823.5849997997284,0.9931640625,-0.27392578125,-0.0087890625,791.8166666428248,791.8150000572205,1.6665856043118765,-4.2724609375,-0.1220703125,-2.8076171875
823.5899999141693,1.17626953125,0.15380859375,0.01513671875,791.8216667572657,791.8200001716614,1.6665856043118765,-7.32421875,-0.9765625,0.9765625
823.5949997901917,1.07568359375,-0.0791015625,-0.04296875,791.826666633288,791.8250000476837,1.6665856043118765,-4.638671875,-0.42724609375,-0.48828125
823.5999999046326,1.18994140625,-0.2236328125,-0.17529296875,791.831666747729,791.8300001621246,1.6665856043118765,-0.30517578125,0.54931640625,2.62451171875
823.6049997806549,1.0546875,0.15185546875,-0.1142578125,791.8366666237513,791.835000038147,1.6665856043118765,-1.03759765625,0.732421875,-1.03759765625
823.6099998950958,1.12255859375,-0.39501953125,-0.0751953125,791.8416667381922,791.8400001525879,1.6665856043118765,-0.9765625,-0.06103515625,4.8828125
823.6149997711182,1.03759765625,0.21630859375,-0.04150390625,791.8466666142145,791.8450000286102,1.6665856043118765,-1.89208984375,0.42724609375,-1.8310546875
823.6199998855591,0.95751953125,-0.439453125,0.01904296875,791.8516667286555,791.8500001430511,1.6665856043118765,-2.99072265625,0.0,1.28173828125
823.625,1.27880859375,-0.08056640625,-0.0458984375,791.8566668430964,791.8550000190735,1.666824022890978,-5.7373046875,-1.5869140625,5.06591796875
823.6299998760223,0.986328125,0.126953125,-0.1787109375,791.8616667191187,791.8600001335144,1.6665856043118765,-1.46484375,0.30517578125,-4.39453125
823.6349999904633,1.13330078125,-0.35009765625,-0.169921875,791.8666668335596,791.8650000095367,1.666824022890978,-2.01416015625,-0.79345703125,4.57763671875
823.6399998664856,0.8427734375,0.2509765625,-0.1396484375,791.871666709582,791.8700001239777,1.6665856043118765,0.79345703125,0.91552734375,-3.35693359375
823.6449999809265,1.11181640625,-0.46533203125,-0.1943359375,791.8766668240229,791.875,1.666824022890978,-0.8544921875,-0.3662109375,5.7373046875
823.6499998569489,1.0908203125,0.091796875,-0.18994140625,791.8816667000452,791.8800001144409,1.6665856043118765,-0.30517578125,0.1220703125,-1.708984375
823.6549999713898,1.08154296875,-0.279296875,-0.177734375,791.8866668144861,791.8849999904633,1.666824022890978,-1.64794921875,-0.244140625,2.5634765625
823.6599998474121,1.08984375,0.2412109375,-0.09033203125,791.8916666905085,791.8900001049042,1.6665856043118765,-1.3427734375,0.42724609375,-2.13623046875
823.664999961853,1.17626953125,-0.2705078125,0.02783203125,791.8966668049494,791.8949999809265,1.666824022890978,-3.7841796875,0.48828125,-2.86865234375
823.6699998378754,1.197265625,0.30126953125,-0.06494140625,791.9016666809717,791.9000000953674,1.6665856043118765,-0.244140625,0.18310546875,4.08935546875
823.6749999523163,0.8427734375,0.1513671875,-0.2451171875,791.9066667954127,791.9049999713898,1.666824022890978,3.84521484375,2.74658203125,-1.8310546875
823.6799998283386,1.3544921875,-0.36669921875,-0.28173828125,791.911666671435,791.9100000858307,1.6665856043118765,-6.591796875,-1.15966796875,5.92041015625
823.6849999427795,1.08349609375,0.28955078125,-0.17919921875,791.9166667858759,791.914999961853,1.666824022890978,1.220703125,2.86865234375,-8.1787109375
823.6899998188019,1.154296875,-0.4404296875,0.021484375,791.9216666618983,791.920000076294,1.6665856043118765,-10.3759765625,-0.18310546875,4.45556640625
823.6949999332428,0.98974609375,0.2744140625,-0.07275390625,791.9266667763392,791.9249999523163,1.666824022890978,-0.1220703125,2.44140625,-5.18798828125
823.6999998092651,1.0703125,-0.05859375,-0.22802734375,791.9316666523615,791.9300000667572,1.6665856043118765,-0.30517578125,2.01416015625,1.220703125
823.704999923706,1.09375,-0.0908203125,-0.21826171875,791.9366667668024,791.9349999427795,1.666824022890978,-4.39453125,1.0986328125,3.7841796875
823.7099997997284,1.00244140625,0.01513671875,-0.177734375,791.9416666428248,791.9400000572205,1.6665856043118765,-1.5869140625,2.38037109375,-4.2724609375
823.7149999141693,1.1904296875,-0.037109375,-0.03271484375,791.9466667572657,791.9450001716614,1.6665856043118765,-7.62939453125,-0.244140625,3.72314453125
823.7199997901917,0.95458984375,0.1650390625,-0.068359375,791.951666633288,791.9500000476837,1.6665856043118765,-5.79833984375,2.3193359375,-8.72802734375
823.7249999046326,1.29150390625,-0.38427734375,0.01904296875,791.956666747729,791.9550001621246,1.6665856043118765,-5.615234375,0.0,10.43701171875
823.7299997806549,0.9560546875,0.1884765625,-0.1494140625,791.9616666237513,791.960000038147,1.6665856043118765,0.91552734375,3.0517578125,-4.2724609375
823.7349998950958,1.3701171875,-0.49267578125,-0.3095703125,791.9666667381922,791.9650001525879,1.6665856043118765,-1.3427734375,-0.18310546875,13.97705078125
823.7399997711182,1.04638671875,0.27880859375,-0.306640625,791.9716666142145,791.9700000286102,1.6665856043118765,5.859375,4.08935546875,-3.90625
823.7449998855591,1.2626953125,-0.3427734375,-0.1865234375,791.9766667286555,791.9750001430511,1.6665856043118765,-9.09423828125,-0.30517578125,3.47900390625
823.75,1.38525390625,0.1376953125,-0.05908203125,791.9816668430964,791.9800000190735,1.666824022890978,-7.87353515625,-0.1220703125,3.662109375
823.7549998760223,1.01708984375,-0.1083984375,-0.10888671875,791.9866667191187,791.9850001335144,1.6665856043118765,-4.33349609375,2.74658203125,-2.685546875
823.7599999904633,1.2236328125,-0.00146484375,-0.0751953125,791.9916668335596,791.9900000095367,1.666824022890978,-5.2490234375,2.5634765625,0.54931640625
823.7649998664856,1.03076171875,0.06591796875,-0.0791015625,791.996666709582,791.9950001239777,1.6665856043118765,-3.173828125,3.5400390625,-5.2490234375
823.7699999809265,1.2294921875,-0.21240234375,-0.04638671875,792.0016668240229,792.0,1.666824022890978,-5.06591796875,2.01416015625,4.8828125
823.7749998569489,1.04541015625,0.13818359375,-0.11328125,792.0066667000452,792.0050001144409,1.6665856043118765,-2.13623046875,3.662109375,-1.0986328125
823.7799999713898,1.19677734375,-0.34228515625,-0.1201171875,792.0116668144861,792.0099999904633,1.666824022890978,-2.197265625,2.685546875,3.35693359375
823.7849998474121,0.92822265625,0.13427734375,-0.1494140625,792.0166666905085,792.0150001049042,1.6665856043118765,0.91552734375,3.7841796875,-1.03759765625
823.789999961853,1.35205078125,-0.255859375,-0.08740234375,792.0216668049494,792.0199999809265,1.666824022890978,-4.33349609375,2.3193359375,2.86865234375
823.7949998378754,1.033203125,0.2158203125,-0.01708984375,792.0266666809717,792.0250000953674,1.6665856043118765,-4.33349609375,3.41796875,-4.57763671875
823.7999999523163,1.0302734375,0.09130859375,-0.111328125,792.0316667954127,792.0299999713898,1.666824022890978,-2.13623046875,3.47900390625,-2.99072265625
823.8049998283386,1.2392578125,-0.10888671875,-0.08544921875,792.036666671435,792.0350000858307,1.6665856043118765,-5.43212890625,1.28173828125,8.11767578125
823.8099999427795,1.02783203125,-0.0869140625,-0.17041015625,792.0416667858759,792.039999961853,1.666824022890978,-4.21142578125,2.62451171875,-2.3193359375
823.8149998188019,1.19873046875,-0.03955078125,-0.07080078125,792.0466666618983,792.045000076294,1.6665856043118765,-4.8828125,1.46484375,2.38037109375
823.8199999332428,0.97119140625,0.05712890625,-0.13427734375,792.0516667763392,792.0499999523163,1.666824022890978,-2.74658203125,3.0517578125,-4.21142578125
823.8249998092651,1.08935546875,-0.18701171875,-0.0859375,792.0566666523615,792.0550000667572,1.6665856043118765,-2.74658203125,3.41796875,-3.173828125
823.829999923706,1.02734375,0.10888671875,-0.099609375,792.0616667668024,792.0599999427795,1.666824022890978,-1.3427734375,2.5634765625,5.79833984375
823.8349997997284,0.9052734375,-0.25927734375,-0.12939453125,792.0666666428248,792.0650000572205,1.6665856043118765,-3.11279296875,3.72314453125,-4.638671875
823.8399999141693,1.1201171875,0.13623046875,-0.0673828125,792.0716667572657,792.0700001716614,1.6665856043118765,-2.99072265625,3.23486328125,0.48828125
823.8449997901917,0.92626953125,-0.19580078125,-0.01806640625,792.076666633288,792.0750000476837,1.6665856043118765,-4.33349609375,4.08935546875,-4.33349609375
823.8499999046326,1.0361328125,-0.0068359375,0.046875,792.081666747729,792.0800001621246,1.6665856043118765,-7.8125,2.0751953125,3.60107421875
823.8549997806549,0.92529296875,0.13330078125,-0.0859375,792.0866666237513,792.085000038147,1.6665856043118765,-3.60107421875,4.69970703125,-4.94384765625
823.8599998950958,1.15283203125,-0.31005859375,-0.17919921875,792.0916667381922,792.0900001525879,1.6665856043118765,-4.08935546875,1.77001953125,11.53564453125
823.8649997711182,0.921875,0.00048828125,-0.28662109375,792.0966666142145,792.0950000286102,1.6665856043118765,2.8076171875,4.57763671875,1.28173828125
823.8699998855591,0.95947265625,-0.326171875,-0.3154296875,792.1016667286555,792.1000001430511,1.6665856043118765,-2.5634765625,2.5634765625,3.5400390625
823.875,1.11181640625,0.068359375,-0.091796875,792.1066668430964,792.1050000190735,1.666824022890978,-9.21630859375,2.3193359375,-5.43212890625
823.8799998760223,1.11572265625,0.03173828125,0.14208984375,792.1116667191187,792.1100001335144,1.6665856043118765,-16.29638671875,2.685546875,-9.1552734375
823.8849999904633,1.009765625,-0.068359375,0.38427734375,792.1166668335596,792.1150000095367,1.666824022890978,-8.48388671875,3.11279296875,4.7607421875
823.8899998664856,0.8642578125,-0.1181640625,0.01171875,792.121666709582,792.1200001239777,1.6665856043118765,3.11279296875,5.2490234375,0.18310546875
823.8949999809265,1.1279296875,0.0751953125,-0.23193359375,792.1266668240229,792.125,1.666824022890978,13.48876953125,5.615234375,8.30078125
823.8999998569489,0.76513671875,-0.046875,-0.32177734375,792.1316667000452,792.1300001144409,1.6665856043118765,0.54931640625,4.94384765625,-3.7841796875
823.9049999713898,0.91748046875,-0.18896484375,-0.12158203125,792.1366668144861,792.1349999904633,1.666824022890978,-16.6015625,1.77001953125,-5.43212890625
823.9099998474121,1.06787109375,0.27099609375,0.0205078125,792.1416666905085,792.1400001049042,1.6665856043118765,-18.5546875,1.220703125,-5.79833984375
823.914999961853,1.0400390625,-0.12353515625,0.04443359375,792.1466668049494,792.1449999809265,1.666824022890978,-2.50244140625,4.5166015625,-1.52587890625
823.9199998378754,1.06982421875,0.13671875,-0.08251953125,792.1516666809717,792.1500000953674,1.6665856043118765,2.5634765625,4.57763671875,1.15966796875
823.9249999523163,0.97900390625,-0.27392578125,-0.18994140625,792.1566667954127,792.1549999713898,1.666824022890978,-1.28173828125,4.7607421875,-2.44140625
823.9299998283386,1.16552734375,0.12841796875,-0.01806640625,792.161666671435,792.1600000858307,1.6665856043118765,-4.8828125,3.173828125,2.74658203125
823.9349999427795,1.0791015625,-0.0576171875,-0.08544921875,792.1666667858759,792.164999961853,1.666824022890978,-4.39453125,4.5166015625,-5.126953125
823.9399998188019,1.2890625,-0.06689453125,-0.05322265625,792.1716666618983,792.170000076294,1.6665856043118765,-5.55419921875,3.0517578125,2.25830078125
823.9449999332428,0.98095703125,0.12890625,-0.2392578125,792.1766667763392,792.1749999523163,1.666824022890978,0.0,5.9814453125,-5.9814453125
823.9499998092651,1.11376953125,-0.2880859375,-0.12939453125,792.1816666523615,792.1800000667572,1.6665856043118765,-2.0751953125,5.37109375,-2.50244140625
823.954999923706,1.134765625,0.05126953125,0.005859375,792.1866667668024,792.1849999427795,1.666824022890978,-7.38525390625,2.86865234375,1.220703125
823.9599997997284,0.9404296875,-0.03271484375,-0.01513671875,792.1916666428248,792.1900000572205,1.6665856043118765,-5.615234375,4.638671875,-3.35693359375
823.9649999141693,1.0146484375,-0.02392578125,0.05810546875,792.1966667572657,792.1950001716614,1.6665856043118765,-8.6669921875,2.99072265625,3.41796875
823.9699997901917,0.99951171875,-0.009765625,-0.10546875,792.201666633288,792.2000000476837,1.6665856043118765,-4.150390625,4.69970703125,-0.732421875
823.9749999046326,0.91259765625,-0.14013671875,-0.037109375,792.206666747729,792.2050001621246,1.6665856043118765,-3.47900390625,4.638671875,-0.244140625
823.9799997806549,0.96923828125,0.1591796875,-0.02783203125,792.2116666237513,792.210000038147,1.6665856043118765,-2.13623046875,4.638671875,-1.64794921875
823.9849998950958,1.091796875,-0.28369140625,0.0830078125,792.2166667381922,792.2150001525879,1.6665856043118765,-2.99072265625,3.90625,1.28173828125
823.9899997711182,1.08056640625,0.12109375,0.02197265625,792.2216666142145,792.2200000286102,1.6665856043118765,-3.11279296875,3.47900390625,3.84521484375
823.9949998855591,1.056640625,-0.24072265625,-0.0693359375,792.2266667286555,792.2250001430511,1.6665856043118765,-3.0517578125,4.2724609375,-1.8310546875
824.0,0.912109375,0.1298828125,-0.0185546875,792.2316668430964,792.2300000190735,1.666824022890978,-4.57763671875,4.638671875,-4.21142578125
824.0049998760223,0.99755859375,-0.22705078125,0.138671875,792.2366667191187,792.2350001335144,1.6665856043118765,-4.08935546875,4.150390625,-3.2958984375
824.0099999904633,0.89501953125,0.27685546875,0.03857421875,792.2416668335596,792.2400000095367,1.666824022890978,-3.84521484375,4.5166015625,-0.54931640625
824.0149998664856,0.8046875,-0.376953125,0.05712890625,792.246666709582,792.2450001239777,1.6665856043118765,-3.662109375,4.82177734375,0.9765625
824.0199999809265,0.84619140625,0.12939453125,-0.11083984375,792.2516668240229,792.25,1.666824022890978,3.5400390625,5.31005859375,4.82177734375
824.0249998569489,0.82275390625,0.169921875,-0.2060546875,792.2566667000452,792.2550001144409,1.6665856043118765,1.46484375,5.55419921875,-3.47900390625
824.0299999713898,1.05029296875,-0.37060546875,0.00537109375,792.2616668144861,792.2599999904633,1.666824022890978,-6.7138671875,3.47900390625,3.96728515625
824.0349998474121,0.95654296875,0.38330078125,-0.1396484375,792.2666666905085,792.2650001049042,1.6665856043118765,0.79345703125,4.2724609375,1.220703125
824.039999961853,0.87255859375,-0.4990234375,0.01123046875,792.2716668049494,792.2699999809265,1.666824022890978,-3.7841796875,4.21142578125,-3.35693359375
824.0449998378754,0.85302734375,0.337890625,-0.0791015625,792.2766666809717,792.2750000953674,1.6665856043118765,1.220703125,4.8828125,-2.50244140625
824.0499999523163,0.833984375,0.3037109375,-0.09912109375,792.2816667954127,792.2799999713898,1.666824022890978,1.77001953125,5.0048828125,-6.53076171875
824.0549998283386,0.826171875,-0.34228515625,-0.0009765625,792.286666671435,792.2850000858307,1.6665856043118765,-3.2958984375,4.0283203125,2.3193359375
824.0599999427795,0.72021484375,0.265625,-0.095703125,792.2916667858759,792.289999961853,1.666824022890978,2.86865234375,4.8828125,-2.01416015625
824.0649998188019,0.75537109375,-0.31591796875,-0.08984375,792.2966666618983,792.295000076294,1.6665856043118765,-1.28173828125,4.21142578125,3.173828125
824.0699999332428,0.72998046875,-0.02099609375,-0.06298828125,792.3016667763392,792.2999999523163,1.666824022890978,-1.46484375,3.662109375,-0.67138671875
824.0749998092651,0.7783203125,-0.15087890625,-0.0986328125,792.3066666523615,792.3050000667572,1.6665856043118765,-2.74658203125,4.150390625,-0.67138671875
824.079999923706,0.87548828125,-0.013671875,-0.01513671875,792.3116667668024,792.3099999427795,1.666824022890978,-4.45556640625,3.2958984375,-1.64794921875
824.0849997997284,0.9697265625,-0.11474609375,0.03759765625,792.3166666428248,792.3150000572205,1.6665856043118765,-3.662109375,3.96728515625,-2.62451171875
824.0899999141693,0.75537109375,0.05322265625,0.01953125,792.3216667572657,792.3200001716614,1.6665856043118765,-3.90625,3.173828125,4.69970703125
824.0949997901917,0.791015625,-0.1015625,-0.08984375,792.326666633288,792.3250000476837,1.6665856043118765,-3.60107421875,4.69970703125,-10.43701171875
824.0999999046326,1.17236328125,-0.314453125,-0.126953125,792.331666747729,792.3300001621246,1.6665856043118765,-1.03759765625,3.60107421875,6.4697265625
824.1049997806549,0.76513671875,0.19287109375,-0.1083984375,792.3366666237513,792.335000038147,1.6665856043118765,1.03759765625,4.638671875,-2.197265625
824.1099998950958,0.78466796875,-0.34033203125,-0.017578125,792.3416667381922,792.3400001525879,1.6665856043118765,-3.662109375,4.21142578125,-4.33349609375
824.1149997711182,0.91259765625,0.26806640625,-0.05029296875,792.3466666142145,792.3450000286102,1.6665856043118765,-0.8544921875,4.08935546875,-3.11279296875
824.1199998855591,0.92431640625,-0.296875,0.03564453125,792.3516667286555,792.3500001430511,1.6665856043118765,-2.86865234375,4.5166015625,-2.01416015625
824.125,0.8935546875,0.00732421875,-0.02001953125,792.3566668430964,792.3550000190735,1.666824022890978,-2.685546875,3.7841796875,2.9296875
824.1299998760223,0.9345703125,-0.01025390625,-0.02685546875,792.3616667191187,792.3600001335144,1.6665856043118765,-4.57763671875,4.39453125,-5.4931640625
824.1349999904633,1.14013671875,0.078125,-0.07373046875,792.3666668335596,792.3650000095367,1.666824022890978,-4.150390625,3.23486328125,1.708984375
824.1399998664856,0.90380859375,-0.0302734375,-0.080078125,792.371666709582,792.3700001239777,1.6665856043118765,-4.5166015625,4.57763671875,-5.859375
824.1449999809265,1.06884765625,-0.09033203125,-0.04736328125,792.3766668240229,792.375,1.666824022890978,-5.31005859375,2.74658203125,6.28662109375
824.1499998569489,0.9697265625,0.0869140625,-0.068359375,792.3816667000452,792.3800001144409,1.6665856043118765,-1.89208984375,4.57763671875,-2.01416015625
824.1549999713898,1.2509765625,-0.17578125,0.02587890625,792.3866668144861,792.3849999904633,1.666824022890978,-3.23486328125,5.31005859375,-0.732421875
824.1599998474121,1.05029296875,0.12744140625,0.009765625,792.3916666905085,792.3900001049042,1.6665856043118765,-3.0517578125,4.69970703125,0.91552734375
824.164999961853,1.04345703125,-0.0859375,-0.04345703125,792.3966668049494,792.3949999809265,1.666824022890978,-5.18798828125,5.0048828125,-2.5634765625
824.1699998378754,0.98046875,0.04150390625,-0.0576171875,792.4016666809717,792.4000000953674,1.6665856043118765,-3.2958984375,4.150390625,0.67138671875
824.1749999523163,0.9638671875,-0.09375,-0.185546875,792.4066667954127,792.4049999713898,1.666824022890978,-2.99072265625,3.90625,1.15966796875
824.1799998283386,0.90673828125,-0.0341796875,-0.04248046875,792.411666671435,792.4100000858307,1.6665856043118765,-4.33349609375,4.8828125,-5.79833984375
824.1849999427795,1.19287109375,0.13916015625,0.060546875,792.4166667858759,792.414999961853,1.666824022890978,-9.27734375,2.50244140625,1.8310546875
824.1899998188019,1.0009765625,0.09521484375,0.09375,792.4216666618983,792.420000076294,1.6665856043118765,-7.99560546875,4.08935546875,-8.85009765625
824.1949999332428,1.10107421875,-0.25537109375,0.07568359375,792.4266667763392,792.4249999523163,1.666824022890978,-1.28173828125,3.23486328125,9.8876953125
824.1999998092651,0.6787109375,0.00341796875,-0.0537109375,792.4316666523615,792.4300000667572,1.6665856043118765,-0.42724609375,4.82177734375,-6.04248046875
824.204999923706,1.31884765625,-0.25732421875,-0.23876953125,792.4366667668024,792.4349999427795,1.666824022890978,1.28173828125,2.25830078125,7.6904296875
824.2099997997284,0.9111328125,0.2001953125,-0.24072265625,792.4416666428248,792.4400000572205,1.6665856043118765,2.197265625,4.69970703125,-3.84521484375
824.2149999141693,1.00537109375,-0.302734375,-0.021484375,792.4466667572657,792.4450001716614,1.6665856043118765,-9.82666015625,1.03759765625,3.0517578125
824.2199997901917,0.8779296875,0.36767578125,-0.08251953125,792.451666633288,792.4500000476837,1.6665856043118765,-2.44140625,3.84521484375,-7.32421875
824.2249999046326,0.90625,-0.14990234375,0.05029296875,792.456666747729,792.4550001621246,1.6665856043118765,-3.47900390625,3.41796875,-3.23486328125
824.2299997806549,1.23046875,-0.1201171875,-0.01171875,792.4616666237513,792.460000038147,1.6665856043118765,-0.732421875,3.41796875,1.89208984375
824.2349998950958,0.951171875,0.04443359375,0.05419921875,792.4666667381922,792.4650001525879,1.6665856043118765,-4.45556640625,3.96728515625,-1.15966796875
824.2399997711182,1.208984375,-0.154296875,0.09423828125,792.4716666142145,792.4700000286102,1.6665856043118765,-3.23486328125,3.35693359375,-0.30517578125
824.2449998855591,1.015625,0.13134765625,-0.07275390625,792.4766667286555,792.4750001430511,1.6665856043118765,-1.52587890625,3.90625,-0.9765625
824.25,0.82861328125,-0.083984375,-0.12744140625,792.4816668430964,792.4800000190735,1.666824022890978,-0.42724609375,4.08935546875,-0.244140625
824.2549998760223,1.171875,-0.1181640625,-0.2197265625,792.4866667191187,792.4850001335144,1.6665856043118765,-1.220703125,2.9296875,1.3427734375
824.2599999904633,1.00341796875,-0.0087890625,-0.154296875,792.4916668335596,792.4900000095367,1.666824022890978,-2.74658203125,4.08935546875,-4.69970703125
824.2649998664856,1.18359375,-0.24365234375,0.0283203125,792.496666709582,792.4950001239777,1.6665856043118765,-4.57763671875,2.197265625,2.685546875
824.2699999809265,0.923828125,0.1455078125,0.02685546875,792.5016668240229,792.5,1.666824022890978,-7.2021484375,3.47900390625,-5.79833984375
824.2749998569489,1.31103515625,-0.21630859375,0.189453125,792.5066667000452,792.5050001144409,1.6665856043118765,-3.0517578125,3.0517578125,2.5634765625
824.2799999713898,0.9130859375,0.06494140625,0.044921875,792.5116668144861,792.5099999904633,1.666824022890978,-2.44140625,3.84521484375,-2.62451171875
824.2849998474121,1.1708984375,-0.216796875,-0.0341796875,792.5166666905085,792.5150001049042,1.6665856043118765,2.01416015625,3.35693359375,6.4697265625
824.289999961853,0.99560546875,0.20703125,-0.15478515625,792.5216668049494,792.5199999809265,1.666824022890978,-0.244140625,3.84521484375,-3.96728515625
824.2949998378754,1.17041015625,-0.34228515625,-0.19287109375,792.5266666809717,792.5250000953674,1.6665856043118765,-2.86865234375,1.220703125,9.1552734375
824.2999999523163,1.138671875,-0.34033203125,-0.0654296875,792.5316667954127,792.5299999713898,1.666824022890978,-7.080078125,0.3662109375,8.4228515625
824.3049998283386,0.95361328125,0.25537109375,-0.19287109375,792.536666671435,792.5350000858307,1.6665856043118765,0.79345703125,4.150390625,-7.6904296875
824.3099999427795,1.47216796875,-0.40673828125,-0.0224609375,792.5416667858759,792.539999961853,1.666824022890978,-9.765625,-0.48828125,10.43701171875
824.3149998188019,1.17333984375,0.43994140625,-0.111328125,792.5466666618983,792.545000076294,1.6665856043118765,-0.18310546875,4.150390625,-7.6904296875
824.3199999332428,1.02783203125,-0.45556640625,0.1943359375,792.5516667763392,792.5499999523163,1.666824022890978,-6.28662109375,2.8076171875,0.48828125
824.3249998092651,1.38818359375,-0.298828125,-0.05712890625,792.5566666523615,792.5550000667572,1.6665856043118765,-0.30517578125,2.3193359375,5.9814453125
824.329999923706,1.1142578125,0.1181640625,-0.1513671875,792.5616667668024,792.5599999427795,1.666824022890978,-1.220703125,3.47900390625,0.42724609375
824.3349997997284,1.0830078125,-0.29931640625,-0.0283203125,792.5666666428248,792.5650000572205,1.6665856043118765,-1.953125,3.35693359375,0.1220703125
824.3399999141693,0.90966796875,0.095703125,-0.083984375,792.5716667572657,792.5700001716614,1.6665856043118765,-1.46484375,3.23486328125,-2.8076171875
824.3449997901917,1.20361328125,-0.220703125,-0.04833984375,792.576666633288,792.5750000476837,1.6665856043118765,-0.9765625,3.11279296875,1.8310546875
824.3499999046326,1.046875,0.18896484375,-0.0029296875,792.581666747729,792.5800001621246,1.6665856043118765,-3.90625,3.41796875,-4.08935546875
824.3549997806549,1.10986328125,-0.3056640625,0.0107421875,792.5866666237513,792.585000038147,1.6665856043118765,-2.38037109375,2.50244140625,0.0
824.3599998950958,0.8896484375,0.083984375,-0.03759765625,792.5916667381922,792.5900001525879,1.6665856043118765,-2.86865234375,2.74658203125,-0.54931640625
824.3649997711182,1.25537109375,-0.2919921875,0.00634765625,792.5966666142145,792.5950000286102,1.6665856043118765,-0.30517578125,2.50244140625,3.84521484375
824.3699998855591,1.06884765625,0.26806640625,-0.05078125,792.6016667286555,792.6000001430511,1.6665856043118765,-2.86865234375,2.99072265625,-2.86865234375
824.375,0.90234375,0.02685546875,0.00390625,792.6066668430964,792.6050000190735,1.666824022890978,-2.9296875,3.41796875,-6.40869140625
824.3799998760223,1.28662109375,-0.1005859375,-0.0390625,792.6116667191187,792.6100001335144,1.6665856043118765,-4.57763671875,0.1220703125,10.43701171875
824.3849999904633,1.01318359375,-0.00341796875,-0.1484375,792.6166668335596,792.6150000095367,1.666824022890978,-2.5634765625,2.50244140625,-2.44140625
824.3899998664856,1.2001953125,0.02783203125,-0.0654296875,792.621666709582,792.6200001239777,1.6665856043118765,-3.5400390625,0.91552734375,7.568359375
824.3949999809265,0.9912109375,0.00830078125,-0.0595703125,792.6266668240229,792.625,1.666824022890978,-5.37109375,2.13623046875,-6.77490234375
824.3999998569489,0.87744140625,0.0361328125,0.08447265625,792.6316667000452,792.6300001144409,1.6665856043118765,-7.62939453125,2.0751953125,-7.6904296875
824.4049999713898,1.0283203125,-0.21484375,0.1884765625,792.6366668144861,792.6349999904633,1.666824022890978,-3.11279296875,1.64794921875,4.33349609375
824.4099998474121,0.7685546875,0.07666015625,-0.08349609375,792.6416666905085,792.6400001049042,1.6665856043118765,1.40380859375,3.11279296875,-5.18798828125
824.414999961853,1.125,-0.21875,-0.1591796875,792.6466668049494,792.6449999809265,1.666824022890978,-0.48828125,0.48828125,6.591796875
824.4199998378754,0.8203125,0.14990234375,-0.17041015625,792.6516666809717,792.6500000953674,1.6665856043118765,-0.244140625,2.3193359375,-4.7607421875
824.4249999523163,0.923828125,-0.37109375,0.0068359375,792.6566667954127,792.6549999713898,1.666824022890978,-3.173828125,1.64794921875,0.0
824.4299998283386,0.89794921875,0.26220703125,0.015625,792.661666671435,792.6600000858307,1.6665856043118765,-5.55419921875,1.46484375,-4.82177734375
824.4349999427795,0.9755859375,-0.18212890625,0.232421875,792.6666667858759,792.664999961853,1.666824022890978,-7.87353515625,1.15966796875,1.40380859375
824.4399998188019,0.935546875,-0.0966796875,0.08056640625,792.6716666618983,792.670000076294,1.6665856043118765,-2.3193359375,1.8310546875,-1.0986328125
824.4449999332428,0.96630859375,0.03515625,-0.02783203125,792.6766667763392,792.6749999523163,1.666824022890978,-0.54931640625,2.01416015625,-1.15966796875
824.4499998092651,1.07666015625,-0.20556640625,-0.0576171875,792.6816666523615,792.6800000667572,1.6665856043118765,-1.15966796875,0.79345703125,1.46484375
824.454999923706,0.8798828125,0.13623046875,-0.0390625,792.6866667668024,792.6849999427795,1.666824022890978,-4.69970703125,1.15966796875,-6.89697265625
824.4599997997284,1.169921875,-0.1953125,0.0361328125,792.6916666428248,792.6900000572205,1.6665856043118765,-1.89208984375,0.18310546875,3.72314453125
824.4649999141693,0.7470703125,0.009765625,-0.00244140625,792.6966667572657,792.6950001716614,1.6665856043118765,-2.74658203125,0.9765625,-3.662109375
824.4699997901917,1.28759765625,-0.21484375,-0.1064453125,792.701666633288,792.7000000476837,1.6665856043118765,0.18310546875,-0.6103515625,6.2255859375
824.4749999046326,0.8359375,0.1650390625,-0.11572265625,792.706666747729,792.7050001621246,1.6665856043118765,-2.01416015625,1.03759765625,-3.662109375
824.4799997806549,1.04638671875,-0.3291015625,0.0400390625,792.7116666237513,792.710000038147,1.6665856043118765,-3.0517578125,-0.244140625,3.11279296875
824.4849998950958,0.82080078125,0.2734375,-0.0986328125,792.7166667381922,792.7150001525879,1.6665856043118765,0.0,1.28173828125,-2.25830078125
824.4899997711182,1.04833984375,-0.41796875,-0.033203125,792.7216666142145,792.7200000286102,1.6665856043118765,-0.18310546875,1.0986328125,4.150390625
824.4949998855591,0.92822265625,0.2353515625,-0.06396484375,792.7266667286555,792.7250001430511,1.6665856043118765,-0.67138671875,1.28173828125,-2.13623046875
824.5,0.865234375,0.12353515625,-0.068359375,792.7316668430964,792.7300000190735,1.666824022890978,-1.40380859375,1.46484375,-3.173828125
824.5049998760223,0.95947265625,-0.3876953125,0.12158203125,792.7366667191187,792.7350001335144,1.6665856043118765,-3.2958984375,0.30517578125,6.40869140625
824.5099999904633,0.93505859375,0.32177734375,-0.08447265625,792.7416668335596,792.7400000095367,1.666824022890978,2.99072265625,1.708984375,-2.99072265625
824.5149998664856,0.7802734375,-0.43017578125,-0.1123046875,792.746666709582,792.7450001239777,1.6665856043118765,0.6103515625,1.40380859375,0.0
824.5199999809265,0.84521484375,0.0810546875,-0.1171875,792.7516668240229,792.75,1.666824022890978,2.3193359375,1.0986328125,0.3662109375
824.5249998569489,0.87548828125,0.07861328125,-0.021484375,792.7566667000452,792.7550001144409,1.6665856043118765,-7.26318359375,0.91552734375,-7.6904296875
824.5299999713898,1.07763671875,-0.2119140625,0.26123046875,792.7616668144861,792.7599999904633,1.666824022890978,-10.07080078125,0.06103515625,-0.3662109375
824.5349998474121,0.84375,0.236328125,0.05810546875,792.7666666905085,792.7650001049042,1.6665856043118765,-1.64794921875,1.40380859375,-2.5634765625
824.539999961853,1.01513671875,-0.2744140625,-0.064453125,792.7716668049494,792.7699999809265,1.666824022890978,4.0283203125,1.28173828125,0.9765625
824.5449998378754,0.849609375,-0.06298828125,-0.20361328125,792.7766666809717,792.7750000953674,1.6665856043118765,2.5634765625,1.708984375,1.3427734375
824.5499999523163,0.86474609375,-0.1181640625,-0.09423828125,792.7816667954127,792.7799999713898,1.666824022890978,-3.47900390625,0.06103515625,1.40380859375
824.5549998283386,0.7939453125,0.0166015625,-0.04248046875,792.786666671435,792.7850000858307,1.6665856043118765,-5.2490234375,0.30517578125,-7.38525390625
824.5599999427795,1.09130859375,-0.2265625,0.10888671875,792.7916667858759,792.789999961853,1.666824022890978,-8.23974609375,0.244140625,-2.99072265625
824.5649998188019,0.8369140625,0.3212890625,0.03564453125,792.7966666618983,792.795000076294,1.6665856043118765,-2.62451171875,-0.42724609375,1.708984375
824.5699999332428,0.71240234375,-0.2529296875,0.04296875,792.8016667763392,792.7999999523163,1.666824022890978,-1.220703125,0.48828125,1.0986328125
824.5749998092651,1.1123046875,-0.4716796875,-0.11181640625,792.8066666523615,792.8050000667572,1.6665856043118765,1.46484375,-0.6103515625,12.26806640625
824.579999923706,0.8115234375,0.20361328125,-0.15966796875,792.8116667668024,792.8099999427795,1.666824022890978,1.3427734375,0.54931640625,-3.11279296875
824.5849997997284,1.00146484375,-0.26220703125,0.0400390625,792.8166666428248,792.8150000572205,1.6665856043118765,-6.04248046875,-1.15966796875,2.9296875
824.5899999141693,0.76220703125,0.33935546875,0.00439453125,792.8216667572657,792.8200001716614,1.6665856043118765,-3.5400390625,-0.06103515625,-2.5634765625
824.5949997901917,0.83056640625,-0.27978515625,0.04931640625,792.826666633288,792.8250000476837,1.6665856043118765,-4.69970703125,-0.79345703125,-0.48828125
824.5999999046326,1.0380859375,-0.12060546875,-0.12939453125,792.831666747729,792.8300001621246,1.6665856043118765,-0.91552734375,-1.28173828125,5.55419921875
824.6049997806549,0.794921875,0.0224609375,-0.06640625,792.8366666237513,792.835000038147,1.6665856043118765,-3.662109375,-0.1220703125,-4.82177734375
824.6099998950958,1.0888671875,-0.337890625,0.11181640625,792.8416667381922,792.8400001525879,1.6665856043118765,-2.44140625,-1.40380859375,3.5400390625
824.6149997711182,0.87060546875,0.2060546875,0.01318359375,792.8466666142145,792.8450000286102,1.6665856043118765,-3.23486328125,-0.30517578125,-4.2724609375
824.6199998855591,0.9541015625,-0.25537109375,0.1533203125,792.8516667286555,792.8500001430511,1.6665856043118765,-3.35693359375,-1.0986328125,0.3662109375
824.625,0.69873046875,0.0107421875,-0.07177734375,792.8566668430964,792.8550000190735,1.666824022890978,2.3193359375,-0.54931640625,-4.0283203125
824.6299998760223,1.0595703125,-0.27392578125,-0.19482421875,792.8616667191187,792.8600001335144,1.6665856043118765,2.0751953125,-1.03759765625,4.45556640625
824.6349999904633,0.83447265625,0.25537109375,-0.07666015625,792.8666668335596,792.8650000095367,1.666824022890978,0.0,-0.54931640625,-6.77490234375
824.6399998664856,0.80322265625,-0.396484375,0.0791015625,792.871666709582,792.8700001239777,1.6665856043118765,-3.90625,-1.52587890625,-0.42724609375
824.6449999809265,0.82421875,0.2646484375,0.0283203125,792.8766668240229,792.875,1.666824022890978,-5.18798828125,-1.8310546875,-3.90625
824.6499998569489,0.80078125,-0.025390625,-0.01220703125,792.8816667000452,792.8800001144409,1.6665856043118765,0.54931640625,-1.15966796875,-2.9296875
824.6549999713898,0.9443359375,-0.17138671875,-0.05859375,792.8866668144861,792.8849999904633,1.666824022890978,0.8544921875,-1.708984375,1.89208984375
824.6599998474121,0.888671875,0.2099609375,-0.03515625,792.8916666905085,792.8900001049042,1.6665856043118765,-2.25830078125,-1.8310546875,-2.9296875
824.664999961853,1.025390625,-0.353515625,0.099609375,792.8966668049494,792.8949999809265,1.666824022890978,-2.38037109375,-2.13623046875,-2.0751953125
824.6699998378754,0.9814453125,0.3359375,-0.04345703125,792.9016666809717,792.9000000953674,1.6665856043118765,1.0986328125,-1.46484375,0.0
824.6749999523163,0.775390625,0.0751953125,-0.12939453125,792.9066667954127,792.9049999713898,1.666824022890978,-0.732421875,-0.9765625,-1.8310546875
824.6799998283386,1.3779296875,-0.22900390625,-0.1376953125,792.911666671435,792.9100000858307,1.6665856043118765,-4.45556640625,-3.47900390625,5.615234375
824.6849999427795,1.009765625,0.318359375,-0.15576171875,792.9166667858759,792.914999961853,1.666824022890978,-0.30517578125,-0.42724609375,-10.07080078125
824.6899998188019,1.21875,-0.45947265625,0.10302734375,792.9216666618983,792.920000076294,1.6665856043118765,-6.8359375,-3.662109375,6.4697265625
824.6949999332428,0.83837890625,0.2421875,-0.03515625,792.9266667763392,792.9249999523163,1.666824022890978,-1.64794921875,-1.3427734375,-4.0283203125
824.6999998092651,1.080078125,-0.28955078125,0.01708984375,792.9316666523615,792.9300000667572,1.6665856043118765,-1.89208984375,-1.77001953125,-3.5400390625
824.704999923706,1.0400390625,-0.01513671875,-0.08642578125,792.9366667668024,792.9349999427795,1.666824022890978,-1.0986328125,-1.28173828125,-0.42724609375
824.7099997997284,1.04052734375,-0.1015625,-0.09521484375,792.9416666428248,792.9400000572205,1.6665856043118765,-1.89208984375,-0.9765625,-0.48828125
824.7149999141693,1.07080078125,0.021484375,-0.08740234375,792.9466667572657,792.9450001716614,1.6665856043118765,-2.685546875,-2.38037109375,-0.48828125
824.7199997901917,1.0927734375,-0.14111328125,-0.05615234375,792.951666633288,792.9500000476837,1.6665856043118765,-1.5869140625,-1.89208984375,0.3662109375
824.7249999046326,1.11669921875,-0.3212890625,0.0478515625,792.956666747729,792.9550001621246,1.6665856043118765,-2.74658203125,-2.99072265625,6.65283203125
824.7299997806549,0.900390625,0.03564453125,-0.03271484375,792.9616666237513,792.960000038147,1.6665856043118765,-3.5400390625,-1.5869140625,-6.28662109375
824.7349998950958,1.3203125,-0.2197265625,-0.08349609375,792.9666667381922,792.9650001525879,1.6665856043118765,0.18310546875,-2.5634765625,3.72314453125
824.7399997711182,0.95068359375,0.1728515625,-0.09912109375,792.9716666142145,792.9700000286102,1.6665856043118765,-1.77001953125,-1.40380859375,-5.92041015625
824.7449998855591,1.07763671875,-0.3212890625,0.07958984375,792.9766667286555,792.9750001430511,1.6665856043118765,-3.2958984375,-2.8076171875,6.28662109375
824.75,1.16162109375,-0.26025390625,-0.10986328125,792.9816668430964,792.9800000190735,1.666824022890978,-1.15966796875,-3.60107421875,9.27734375
824.7549998760223,0.84619140625,0.09814453125,-0.1650390625,792.9866667191187,792.9850001335144,1.6665856043118765,-1.15966796875,-1.46484375,-1.953125
824.7599999904633,1.00146484375,-0.37109375,-0.109375,792.9916668335596,792.9900000095367,1.666824022890978,-1.40380859375,-3.7841796875,8.36181640625
824.7649998664856,0.9013671875,0.2353515625,-0.109375,792.996666709582,792.9950001239777,1.6665856043118765,-2.197265625,-2.3193359375,-7.6904296875
824.7699999809265,1.22412109375,-0.39306640625,0.220703125,793.0016668240229,793.0,1.666824022890978,-5.06591796875,-3.2958984375,6.34765625
824.7749998569489,0.9404296875,0.35693359375,0.03759765625,793.0066667000452,793.0050001144409,1.6665856043118765,-1.28173828125,-2.197265625,-2.74658203125
824.7799999713898,0.8564453125,-0.31689453125,0.0556640625,793.0116668144861,793.0099999904633,1.666824022890978,-4.08935546875,-2.8076171875,3.11279296875
824.7849998474121,0.7392578125,0.1435546875,-0.10498046875,793.0166666905085,793.0150001049042,1.6665856043118765,7.01904296875,-1.77001953125,2.3193359375
824.789999961853,0.89794921875,-0.52685546875,-0.2421875,793.0216668049494,793.0199999809265,1.666824022890978,1.5869140625,-1.953125,7.9345703125
824.7949998378754,0.740234375,0.1669921875,-0.11328125,793.0266666809717,793.0250000953674,1.6665856043118765,1.89208984375,-2.3193359375,-2.9296875
824.7999999523163,0.8037109375,0.130859375,0.0029296875,793.0316667954127,793.0299999713898,1.666824022890978,-8.48388671875,-2.5634765625,-7.4462890625
824.8049998283386,0.90869140625,-0.173828125,0.25927734375,793.036666671435,793.0350000858307,1.6665856043118765,-6.53076171875,-2.9296875,2.8076171875
824.8099999427795,0.79150390625,-0.02783203125,0.0126953125,793.0416667858759,793.039999961853,1.666824022890978,-0.1220703125,-2.44140625,-3.72314453125
824.8149998188019,0.9013671875,-0.1123046875,-0.0302734375,793.0466666618983,793.045000076294,1.6665856043118765,0.54931640625,-2.9296875,5.37109375
824.8199999332428,0.83349609375,0.0048828125,-0.07568359375,793.0516667763392,793.0499999523163,1.666824022890978,-0.42724609375,-3.173828125,-5.18798828125
824.8249998092651,0.70849609375,-0.08642578125,-0.056640625,793.0566666523615,793.0550000667572,1.6665856043118765,-3.662109375,-3.11279296875,-7.32421875
824.829999923706,0.966796875,-0.05224609375,0.0107421875,793.0616667668024,793.0599999427795,1.666824022890978,-1.64794921875,-5.31005859375,9.33837890625
824.8349997997284,0.74169921875,-0.10791015625,-0.03857421875,793.0666666428248,793.0650000572205,1.6665856043118765,-2.685546875,-3.5400390625,-6.4697265625
824.8399999141693,1.30126953125,-0.30615234375,0.05126953125,793.0716667572657,793.0700001716614,1.6665856043118765,-6.53076171875,-6.591796875,7.87353515625
824.8449997901917,0.7216796875,-0.00146484375,-0.00634765625,793.076666633288,793.0750000476837,1.6665856043118765,-0.54931640625,-3.5400390625,-8.4228515625
824.8499999046326,1.0087890625,-0.30712890625,0.06396484375,793.081666747729,793.0800001621246,1.6665856043118765,-2.8076171875,-4.33349609375,1.03759765625
824.8549997806549,0.8037109375,0.4169921875,-0.060546875,793.0866666237513,793.085000038147,1.6665856043118765,2.01416015625,-2.62451171875,-1.708984375
824.8599998950958,0.8203125,-0.51171875,-0.0361328125,793.0916667381922,793.0900001525879,1.6665856043118765,-0.42724609375,-3.72314453125,1.77001953125
824.8649997711182,0.9169921875,0.25439453125,-0.11279296875,793.0966666142145,793.0950000286102,1.6665856043118765,2.197265625,-3.11279296875,-1.5869140625
824.8699998855591,0.90283203125,-0.28857421875,-0.0791015625,793.1016667286555,793.1000001430511,1.6665856043118765,-0.8544921875,-3.173828125,-2.74658203125
824.875,1.33837890625,0.046875,-0.0087890625,793.1066668430964,793.1050000190735,1.666824022890978,-9.09423828125,-5.7373046875,1.708984375
824.8799998760223,1.169921875,0.14404296875,-0.16943359375,793.1116667191187,793.1100001335144,1.6665856043118765,-3.2958984375,-3.662109375,-4.08935546875
824.8849999904633,1.23779296875,-0.3095703125,-0.09521484375,793.1166668335596,793.1150000095367,1.666824022890978,-1.52587890625,-3.84521484375,-1.40380859375
824.8899998664856,1.03955078125,0.01416015625,-0.16259765625,793.121666709582,793.1200001239777,1.6665856043118765,-2.13623046875,-3.2958984375,-2.86865234375
824.8949999809265,1.34130859375,-0.32763671875,-0.13720703125,793.1266668240229,793.125,1.666824022890978,-0.18310546875,-3.41796875,0.91552734375
824.8999998569489,1.11181640625,0.142578125,-0.087890625,793.1316667000452,793.1300001144409,1.6665856043118765,-1.52587890625,-2.38037109375,-4.2724609375
824.9049999713898,1.23876953125,-0.1103515625,0.06591796875,793.1366668144861,793.1349999904633,1.666824022890978,-4.5166015625,-3.23486328125,-3.2958984375
824.9099998474121,1.15966796875,0.1953125,-0.083984375,793.1416666905085,793.1400001049042,1.6665856043118765,-1.5869140625,-3.41796875,-2.0751953125
824.914999961853,1.22265625,-0.17138671875,-0.1279296875,793.1466668049494,793.1449999809265,1.666824022890978,-2.86865234375,-3.11279296875,-0.54931640625
824.9199998378754,1.07861328125,-0.0380859375,-0.12646484375,793.1516666809717,793.1500000953674,1.6665856043118765,-2.74658203125,-3.23486328125,-1.0986328125
824.9249999523163,1.0830078125,0.0556640625,-0.07470703125,793.1566667954127,793.1549999713898,1.666824022890978,-2.8076171875,-3.23486328125,-4.2724609375
824.9299998283386,1.3984375,-0.1025390625,-0.01806640625,793.161666671435,793.1600000858307,1.6665856043118765,-4.45556640625,-4.5166015625,3.662109375
824.9349999427795,1.11328125,0.23876953125,-0.0947265625,793.1666667858759,793.164999961853,1.666824022890978,-1.40380859375,-2.62451171875,-3.47900390625
824.9399998188019,1.13427734375,-0.35498046875,-0.1201171875,793.1716666618983,793.170000076294,1.6665856043118765,1.953125,-2.685546875,3.23486328125
824.9449999332428,0.96142578125,0.263671875,-0.20166015625,793.1766667763392,793.1749999523163,1.666824022890978,2.9296875,-1.28173828125,-4.21142578125
824.9499998092651,1.11669921875,-0.2744140625,-0.0322265625,793.1816666523615,793.1800000667572,1.6665856043118765,-3.84521484375,-2.3193359375,-6.65283203125
824.954999923706,1.04931640625,0.01318359375,0.09912109375,793.1866667668024,793.1849999427795,1.666824022890978,-9.82666015625,-4.638671875,5.126953125
824.9599997997284,0.96337890625,0.0263671875,0.0595703125,793.1916666428248,793.1900000572205,1.6665856043118765,-4.638671875,-1.52587890625,-7.568359375
824.9649999141693,1.45556640625,-0.12841796875,0.01171875,793.1966667572657,793.1950001716614,1.6665856043118765,-3.96728515625,-4.0283203125,6.8359375
824.9699997901917,0.9921875,0.01708984375,-0.08447265625,793.201666633288,793.2000000476837,1.6665856043118765,-0.42724609375,-1.52587890625,-2.86865234375
824.9749999046326,0.9833984375,-0.4111328125,-0.13916015625,793.206666747729,793.2050001621246,1.6665856043118765,1.8310546875,-1.8310546875,3.47900390625
824.9799997806549,1.00390625,0.181640625,-0.185546875,793.2116666237513,793.210000038147,1.6665856043118765,1.15966796875,-2.13623046875,-1.0986328125
824.9849998950958,1.0693359375,-0.32666015625,-0.0263671875,793.2166667381922,793.2150001525879,1.6665856043118765,-1.89208984375,-3.0517578125,2.9296875
824.9899997711182,0.92822265625,0.07666015625,-0.0078125,793.2216666142145,793.2200000286102,1.6665856043118765,-3.23486328125,-3.173828125,-0.48828125
824.9949998855591,0.89892578125,-0.2080078125,0.07763671875,793.2266667286555,793.2250001430511,1.6665856043118765,-4.69970703125,-3.60107421875,-3.0517578125
825.0,1.21240234375,-0.126953125,-0.01220703125,793.2316668430964,793.2300000190735,1.666824022890978,-1.953125,-4.33349609375,1.0986328125
825.0049998760223,0.974609375,0.20556640625,-0.0390625,793.2366667191187,793.2350001335144,1.6665856043118765,-2.8076171875,-3.47900390625,-5.06591796875
825.0099999904633,0.94921875,-0.3291015625,0.09375,793.2416668335596,793.2400000095367,1.666824022890978,-2.685546875,-4.33349609375,2.13623046875
825.0149998664856,0.81494140625,0.21337890625,0.005859375,793.246666709582,793.2450001239777,1.6665856043118765,-2.74658203125,-3.60107421875,-2.01416015625
825.0199999809265,1.08154296875,-0.3095703125,-0.00146484375,793.2516668240229,793.25,1.666824022890978,-0.18310546875,-3.90625,2.99072265625
825.0249998569489,1.11376953125,-0.10595703125,-0.13037109375,793.2566667000452,793.2550001144409,1.6665856043118765,0.3662109375,-4.45556640625,5.43212890625
825.0299999713898,0.9150390625,0.17333984375,-0.09716796875,793.2616668144861,793.2599999904633,1.666824022890978,-2.62451171875,-3.35693359375,-8.85009765625
825.0349998474121,1.2236328125,-0.19482421875,0.00634765625,793.2666666905085,793.2650001049042,1.6665856043118765,-5.31005859375,-6.16455078125,7.568359375
825.039999961853,0.90283203125,0.19921875,-0.0458984375,793.2716668049494,793.2699999809265,1.666824022890978,-4.0283203125,-3.2958984375,-9.1552734375
825.0449998378754,1.1982421875,-0.39501953125,-0.01708984375,793.2766666809717,793.2750000953674,1.6665856043118765,-0.6103515625,-4.69970703125,8.48388671875
825.0499999523163,0.8662109375,0.181640625,-0.15234375,793.2816667954127,793.2799999713898,1.666824022890978,1.52587890625,-2.62451171875,-2.50244140625
825.0549998283386,1.37060546875,-0.36181640625,-0.193359375,793.286666671435,793.2850000858307,1.6665856043118765,-1.0986328125,-4.69970703125,4.0283203125
825.0599999427795,1.12744140625,0.32666015625,-0.13623046875,793.2916667858759,793.289999961853,1.666824022890978,0.244140625,-3.0517578125,-4.08935546875
825.0649998188019,1.158203125,-0.333984375,0.03173828125,793.2966666618983,793.295000076294,1.6665856043118765,-3.47900390625,-3.662109375,-2.01416015625
825.0699999332428,1.2373046875,0.32568359375,-0.10400390625,793.3016667763392,793.2999999523163,1.666824022890978,1.15966796875,-3.23486328125,-1.46484375
825.0749998092651,1.32421875,0.005859375,-0.25,793.3066666523615,793.3050000667572,1.6665856043118765,-3.35693359375,-3.72314453125,-1.77001953125
825.079999923706,1.3232421875,-0.20654296875,-0.14453125,793.3116667668024,793.3099999427795,1.666824022890978,-2.9296875,-4.33349609375,1.3427734375
825.0849997997284,1.27392578125,0.12353515625,-0.15234375,793.3166666428248,793.3150000572205,1.6665856043118765,-2.44140625,-2.44140625,-6.9580078125
825.0899999141693,1.490234375,0.025390625,0.02880859375,793.3216667572657,793.3200001716614,1.6665856043118765,-11.1083984375,-5.0048828125,0.1220703125
825.0949997901917,1.2998046875,0.25390625,-0.00537109375,793.326666633288,793.3250000476837,1.6665856043118765,-6.28662109375,-2.50244140625,-11.41357421875
825.0999999046326,1.19091796875,-0.220703125,-0.08154296875,793.331666747729,793.3300001621246,1.6665856043118765,0.6103515625,-1.708984375,-1.3427734375
825.1049997806549,1.40185546875,-0.02001953125,-0.23876953125,793.3366666237513,793.335000038147,1.6665856043118765,1.15966796875,-3.7841796875,6.89697265625
825.1099998950958,1.09521484375,-0.009765625,-0.302734375,793.3416667381922,793.3400001525879,1.6665856043118765,1.77001953125,-1.0986328125,-5.9814453125
825.1149997711182,1.38232421875,-0.01220703125,-0.115234375,793.3466666142145,793.3450000286102,1.6665856043118765,-8.1787109375,-5.31005859375,7.38525390625
825.1199998855591,1.1474609375,-0.0830078125,-0.13330078125,793.3516667286555,793.3500001430511,1.6665856043118765,-4.39453125,-2.50244140625,-5.4931640625
825.125,1.54931640625,-0.3291015625,0.05517578125,793.3566668430964,793.3550000190735,1.666824022890978,-10.498046875,-5.79833984375,11.3525390625
825.1299998760223,1.18359375,0.19384765625,-0.01025390625,793.3616667191187,793.3600001335144,1.6665856043118765,-4.33349609375,-2.3193359375,-4.638671875
825.1349999904633,1.2861328125,-0.27783203125,0.01318359375,793.3666668335596,793.3650000095367,1.666824022890978,0.06103515625,-2.685546875,4.8828125
825.1399998664856,1.06103515625,0.146484375,-0.0927734375,793.371666709582,793.3700001239777,1.6665856043118765,-2.01416015625,-2.5634765625,-1.64794921875
825.1449999809265,1.275390625,-0.27392578125,-0.111328125,793.3766668240229,793.375,1.666824022890978,0.732421875,-2.50244140625,3.173828125
825.1499998569489,1.09716796875,-0.09521484375,-0.03369140625,793.3816667000452,793.3800001144409,1.6665856043118765,-5.18798828125,-4.638671875,6.4697265625
825.1549999713898,0.80615234375,0.021484375,-0.1533203125,793.3866668144861,793.3849999904633,1.666824022890978,-2.3193359375,-1.953125,-4.2724609375
825.1599998474121,1.0712890625,-0.0478515625,0.0322265625,793.3916666905085,793.3900001049042,1.6665856043118765,-9.521484375,-5.2490234375,2.44140625
825.164999961853,0.82373046875,0.13818359375,-0.03271484375,793.3966668049494,793.3949999809265,1.666824022890978,-5.37109375,-2.38037109375,-9.82666015625
825.1699998378754,0.994140625,-0.384765625,0.24951171875,793.4016666809717,793.4000000953674,1.6665856043118765,-6.2255859375,-3.90625,8.30078125
825.1749999523163,0.84521484375,0.09375,-0.01806640625,793.4066667954127,793.4049999713898,1.666824022890978,0.0,-3.41796875,1.89208984375
825.1799998283386,0.74267578125,-0.162109375,-0.10546875,793.411666671435,793.4100000858307,1.6665856043118765,0.48828125,-2.8076171875,0.42724609375
825.1849999427795,0.88134765625,0.03955078125,-0.140625,793.4166667858759,793.414999961853,1.666824022890978,0.1220703125,-3.47900390625,2.99072265625
825.1899998188019,0.58740234375,-0.0703125,-0.1064453125,793.4216666618983,793.420000076294,1.6665856043118765,-0.30517578125,-2.50244140625,-1.8310546875
825.1949999332428,0.763671875,0.0244140625,0.029296875,793.4266667763392,793.4249999523163,1.666824022890978,-8.7890625,-5.06591796875,2.38037109375
825.1999998092651,0.58349609375,0.0244140625,0.02099609375,793.4316666523615,793.4300000667572,1.6665856043118765,-5.9814453125,-2.86865234375,-7.4462890625
825.204999923706,0.9912109375,-0.29296875,0.0712890625,793.4366667668024,793.4349999427795,1.666824022890978,-3.84521484375,-5.18798828125,10.25390625
825.2099997997284,0.50927734375,-0.09765625,0.00439453125,793.4416666428248,793.4400000572205,1.6665856043118765,-2.3193359375,-2.5634765625,-5.43212890625
825.2149999141693,0.9716796875,-0.12646484375,-0.005859375,793.4466667572657,793.4450001716614,1.6665856043118765,-2.99072265625,-4.8828125,6.28662109375
825.2199997901917,0.6318359375,0.13037109375,-0.09423828125,793.451666633288,793.4500000476837,1.6665856043118765,-0.732421875,-2.25830078125,-9.82666015625
825.2249999046326,0.65234375,-0.2138671875,-0.037109375,793.456666747729,793.4550001621246,1.6665856043118765,-2.5634765625,-3.47900390625,-3.60107421875
825.2299997806549,0.830078125,0.11083984375,0.0048828125,793.4616666237513,793.460000038147,1.6665856043118765,-2.9296875,-4.8828125,4.8828125
825.2349998950958,0.6669921875,-0.33837890625,-0.107421875,793.4666667381922,793.4650001525879,1.6665856043118765,-2.25830078125,-3.84521484375,-3.90625
825.2399997711182,0.91845703125,-0.052734375,-0.08056640625,793.4716666142145,793.4700000286102,1.6665856043118765,-4.08935546875,-4.8828125,1.64794921875
825.2449998855591,0.80810546875,0.01318359375,-0.076171875,793.4766667286555,793.4750001430511,1.6665856043118765,-4.7607421875,-3.47900390625,-5.06591796875
825.25,1.0517578125,-0.05322265625,0.064453125,793.4816668430964,793.4800000190735,1.666824022890978,-8.544921875,-5.31005859375,2.50244140625
825.2549998760223,0.85986328125,0.23876953125,-0.01904296875,793.4866667191187,793.4850001335144,1.6665856043118765,-4.0283203125,-2.5634765625,-11.1083984375
825.2599999904633,1.06396484375,-0.2919921875,0.017578125,793.4916668335596,793.4900000095367,1.666824022890978,-1.15966796875,-3.72314453125,2.0751953125
825.2649998664856,0.814453125,0.1298828125,-0.15625,793.496666709582,793.4950001239777,1.6665856043118765,1.64794921875,-2.3193359375,-4.08935546875
825.2699999809265,1.2353515625,-0.22509765625,-0.16455078125,793.5016668240229,793.5,1.666824022890978,-1.40380859375,-3.72314453125,3.96728515625
825.2749998569489,1.0908203125,0.0205078125,0.001953125,793.5066667000452,793.5050001144409,1.6665856043118765,-8.544921875,-5.06591796875,2.197265625
825.2799999713898,1.04296875,0.17333984375,-0.08740234375,793.5116668144861,793.5099999904633,1.666824022890978,-4.5166015625,-2.685546875,-9.521484375
825.2849998474121,1.361328125,-0.17919921875,-0.048828125,793.5166666905085,793.5150001049042,1.6665856043118765,-6.103515625,-5.4931640625,8.48388671875
825.289999961853,1.11181640625,0.125,-0.19970703125,793.5216668049494,793.5199999809265,1.666824022890978,-1.15966796875,-2.62451171875,-1.8310546875
825.2949998378754,1.21923828125,-0.24951171875,-0.2421875,793.5266666809717,793.5250000953674,1.6665856043118765,-0.91552734375,-3.84521484375,5.2490234375
825.2999999523163,1.255859375,0.181640625,-0.07568359375,793.5316667954127,793.5299999713898,1.666824022890978,-2.13623046875,-3.173828125,0.48828125
825.3049998283386,1.2880859375,-0.109375,-0.0771484375,793.536666671435,793.5350000858307,1.6665856043118765,-5.43212890625,-2.197265625,-5.92041015625
825.3099999427795,1.35205078125,0.2158203125,-0.0361328125,793.5416667858759,793.539999961853,1.666824022890978,-4.33349609375,-2.99072265625,4.94384765625
825.3149998188019,1.02685546875,-0.1181640625,-0.11572265625,793.5466666618983,793.545000076294,1.6665856043118765,-2.74658203125,-1.3427734375,-6.2255859375
825.3199999332428,1.15966796875,-0.0302734375,-0.08935546875,793.5516667763392,793.5499999523163,1.666824022890978,-4.2724609375,-3.72314453125,6.89697265625
825.3249998092651,1.0244140625,0.09228515625,-0.2109375,793.5566666523615,793.5550000667572,1.6665856043118765,-0.8544921875,0.1220703125,-9.21630859375
825.329999923706,1.265625,-0.2822265625,0.02294921875,793.5616667668024,793.5599999427795,1.666824022890978,-13.61083984375,-5.06591796875,7.080078125
825.3349997997284,0.90625,0.17529296875,-0.05224609375,793.5666666428248,793.5650000572205,1.6665856043118765,-5.859375,-0.42724609375,-6.04248046875
825.3399999141693,1.13818359375,-0.33984375,0.0400390625,793.5716667572657,793.5700001716614,1.6665856043118765,-1.52587890625,-1.64794921875,8.9111328125
825.3449997901917,1.00341796875,0.12255859375,-0.1650390625,793.576666633288,793.5750000476837,1.6665856043118765,1.8310546875,-0.91552734375,2.74658203125
825.3499999046326,0.94482421875,0.06396484375,-0.30517578125,793.581666747729,793.5800001621246,1.6665856043118765,6.53076171875,0.30517578125,-2.197265625
825.3549997806549,1.0224609375,0.037109375,-0.16845703125,793.5866666237513,793.585000038147,1.6665856043118765,-4.8828125,-3.23486328125,6.4697265625
825.3599998950958,0.83203125,-0.20849609375,-0.10986328125,793.5916667381922,793.5900001525879,1.6665856043118765,-2.685546875,-1.220703125,-4.94384765625
825.3649997711182,1.173828125,0.11328125,0.1005859375,793.5966666142145,793.5950000286102,1.6665856043118765,-19.775390625,-5.43212890625,0.48828125
825.3699998855591,0.763671875,-0.04150390625,0.20263671875,793.6016667286555,793.6000001430511,1.6665856043118765,-10.1318359375,-1.708984375,-7.38525390625
825.375,0.95751953125,-0.263671875,0.06591796875,793.6066668430964,793.6050000190735,1.666824022890978,-1.28173828125,-0.9765625,4.21142578125
825.3799998760223,0.904296875,0.15869140625,-0.02099609375,793.6116667191187,793.6100001335144,1.6665856043118765,3.72314453125,-0.8544921875,0.30517578125
825.3849999904633,0.77685546875,-0.23046875,-0.11328125,793.6166668335596,793.6150000095367,1.666824022890978,2.3193359375,-0.42724609375,2.50244140625
825.3899998664856,0.81591796875,0.130859375,-0.1474609375,793.621666709582,793.6200001239777,1.6665856043118765,1.64794921875,-0.9765625,3.90625
825.3949999809265,0.70947265625,-0.3916015625,-0.13623046875,793.6266668240229,793.625,1.666824022890978,-1.77001953125,-0.9765625,-0.30517578125
825.3999998569489,0.88037109375,0.087890625,-0.02685546875,793.6316667000452,793.6300001144409,1.6665856043118765,-5.4931640625,-2.8076171875,2.0751953125
825.4049999713898,0.68115234375,-0.07470703125,0.01220703125,793.6366668144861,793.6349999904633,1.666824022890978,-4.39453125,-1.28173828125,-5.06591796875
825.4099998474121,0.9091796875,0.14794921875,0.00537109375,793.6416666905085,793.6400001049042,1.6665856043118765,-5.43212890625,-2.5634765625,3.2958984375
825.414999961853,0.7548828125,-0.021484375,0.01708984375,793.6466668049494,793.6449999809265,1.666824022890978,-5.67626953125,-1.3427734375,-8.72802734375
825.4199998378754,0.96484375,-0.20263671875,-0.0185546875,793.6516666809717,793.6500000953674,1.6665856043118765,-2.99072265625,-3.2958984375,10.25390625
825.4249999523163,0.79443359375,0.13818359375,-0.11279296875,793.6566667954127,793.6549999713898,1.666824022890978,-0.42724609375,-1.15966796875,-1.46484375
825.4299998283386,0.919921875,-0.34521484375,-0.04052734375,793.661666671435,793.6600000858307,1.6665856043118765,-2.13623046875,-1.52587890625,-0.1220703125
825.4349999427795,0.99658203125,0.10205078125,0.00830078125,793.6666667858759,793.664999961853,1.666824022890978,-4.33349609375,-2.5634765625,1.03759765625
825.4399998188019,0.86279296875,-0.0419921875,0.0068359375,793.6716666618983,793.670000076294,1.6665856043118765,-4.82177734375,-2.01416015625,-4.150390625
825.4449999332428,1.10888671875,0.09619140625,-0.08984375,793.6766667763392,793.6749999523163,1.666824022890978,-2.13623046875,-3.11279296875,3.60107421875
825.4499998092651,0.88037109375,0.0078125,-0.17822265625,793.6816666523615,793.6800000667572,1.6665856043118765,-1.8310546875,-1.5869140625,-0.8544921875
825.454999923706,0.89892578125,-0.2021484375,-0.1845703125,793.6866667668024,793.6849999427795,1.666824022890978,-0.79345703125,-1.3427734375,0.79345703125
825.4599997997284,1.0205078125,0.1689453125,-0.14453125,793.6916666428248,793.6900000572205,1.6665856043118765,-0.91552734375,-1.0986328125,-3.60107421875
825.4649999141693,1.1015625,-0.13916015625,-0.10009765625,793.6966667572657,793.6950001716614,1.6665856043118765,-2.9296875,-1.3427734375,-0.1220703125
825.4699997901917,1.22509765625,0.14306640625,-0.0126953125,793.701666633288,793.7000000476837,1.6665856043118765,-5.4931640625,-2.197265625,3.96728515625
825.4749999046326,1.076171875,-0.07763671875,-0.12158203125,793.706666747729,793.7050001621246,1.6665856043118765,-4.57763671875,-0.9765625,-2.74658203125
825.4799997806549,1.3291015625,0.1865234375,-0.134765625,793.7116666237513,793.710000038147,1.6665856043118765,-2.9296875,-1.46484375,0.30517578125
825.4849998950958,1.15771484375,-0.244140625,-0.21630859375,793.7166667381922,793.7150001525879,1.6665856043118765,-0.06103515625,0.42724609375,-3.60107421875
825.4899997711182,1.3740234375,0.126953125,-0.11083984375,793.7216666142145,793.7200000286102,1.6665856043118765,-4.0283203125,-1.3427734375,7.14111328125
825.4949998855591,1.1083984375,-0.10595703125,-0.2021484375,793.7266667286555,793.7250001430511,1.6665856043118765,-1.46484375,2.01416015625,-7.62939453125
825.5,1.287109375,-0.31884765625,-0.06005859375,793.7316668430964,793.7300000190735,1.666824022890978,-5.31005859375,0.732421875,0.18310546875
825.5049998760223,1.2265625,0.17041015625,-0.0927734375,793.7366667191187,793.7350001335144,1.6665856043118765,-1.3427734375,1.3427734375,0.30517578125
825.5099999904633,1.1025390625,-0.14111328125,-0.064453125,793.7416668335596,793.7400000095367,1.666824022890978,-3.35693359375,2.0751953125,-3.662109375
825.5149998664856,1.30908203125,0.17822265625,-0.07177734375,793.746666709582,793.7450001239777,1.6665856043118765,-3.72314453125,0.8544921875,3.23486328125
825.5199999809265,1.04638671875,-0.232421875,-0.0400390625,793.7516668240229,793.75,1.666824022890978,-4.57763671875,2.01416015625,-4.150390625
825.5249998569489,1.3330078125,-0.515625,-0.224609375,793.7566667000452,793.7550001144409,1.6665856043118765,-1.953125,1.03759765625,7.38525390625
825.5299999713898,1.0615234375,0.34423828125,-0.2255859375,793.7616668144861,793.7599999904633,1.666824022890978,6.65283203125,3.173828125,0.3662109375
825.5349998474121,1.2412109375,-0.443359375,-0.25439453125,793.7666666905085,793.7650001049042,1.6665856043118765,-6.4697265625,-0.1220703125,7.8125
825.539999961853,1.15283203125,0.4013671875,-0.0888671875,793.7716668049494,793.7699999809265,1.666824022890978,-0.54931640625,1.953125,-4.39453125
825.5449998378754,0.88671875,-0.32763671875,0.0478515625,793.7766666809717,793.7750000953674,1.6665856043118765,-7.14111328125,2.0751953125,0.732421875
825.5499999523163,1.02783203125,0.23388671875,0.02197265625,793.7816667954127,793.7799999713898,1.666824022890978,-1.46484375,1.46484375,0.67138671875
825.5549998283386,0.8076171875,-0.30078125,-0.041015625,793.786666671435,793.7850000858307,1.6665856043118765,-0.91552734375,2.25830078125,1.77001953125
825.5599999427795,0.81396484375,0.09521484375,-0.046875,793.7916667858759,793.789999961853,1.666824022890978,-0.732421875,1.77001953125,3.7841796875
825.5649998188019,0.7841796875,-0.11865234375,-0.10791015625,793.7966666618983,793.795000076294,1.6665856043118765,-2.197265625,2.44140625,-2.01416015625
825.5699999332428,1.00244140625,0.2685546875,0.025390625,793.8016667763392,793.7999999523163,1.666824022890978,-8.72802734375,0.9765625,-0.06103515625
825.5749998092651,0.7626953125,0.2421875,0.01708984375,793.8066666523615,793.8050000667572,1.6665856043118765,-3.11279296875,2.3193359375,-3.173828125
825.579999923706,0.73779296875,-0.42138671875,-0.02294921875,793.8116667668024,793.8099999427795,1.666824022890978,1.77001953125,2.25830078125,9.6435546875
825.5849997997284,0.6630859375,0.16455078125,-0.15673828125,793.8166666428248,793.8150000572205,1.6665856043118765,4.21142578125,3.5400390625,-0.06103515625
825.5899999141693,0.89306640625,-0.42041015625,-0.11962890625,793.8216667572657,793.8200001716614,1.6665856043118765,-4.82177734375,0.67138671875,7.4462890625
825.5949997901917,0.71142578125,0.19775390625,-0.01513671875,793.826666633288,793.8250000476837,1.6665856043118765,-6.77490234375,1.46484375,-3.41796875
825.5999999046326,0.634765625,-0.2314453125,0.16552734375,793.831666747729,793.8300001621246,1.6665856043118765,-9.6435546875,1.0986328125,-0.1220703125
825.6049997806549,0.73974609375,0.171875,0.06298828125,793.8366666237513,793.835000038147,1.6665856043118765,-2.44140625,1.3427734375,1.28173828125
825.6099998950958,0.54541015625,-0.20263671875,-0.0390625,793.8416667381922,793.8400001525879,1.6665856043118765,-0.48828125,2.13623046875,2.197265625
825.6149997711182,0.720703125,-0.1123046875,-0.14697265625,793.8466666142145,793.8450000286102,1.6665856043118765,2.25830078125,0.91552734375,5.92041015625
825.6199998855591,0.62353515625,-0.0732421875,-0.095703125,793.8516667286555,793.8500001430511,1.6665856043118765,-3.96728515625,1.5869140625,-2.685546875
825.625,0.80712890625,-0.28173828125,0.09521484375,793.8566668430964,793.8550000190735,1.666824022890978,-5.9814453125,0.30517578125,3.90625
825.6299998760223,0.7509765625,0.2978515625,0.03564453125,793.8616667191187,793.8600001335144,1.6665856043118765,-3.84521484375,0.732421875,0.0
825.6349999904633,0.72216796875,-0.27783203125,0.07080078125,793.8666668335596,793.8650000095367,1.666824022890978,-4.33349609375,0.91552734375,2.44140625
825.6399998664856,0.703125,0.13525390625,-0.08251953125,793.871666709582,793.8700001239777,1.6665856043118765,3.2958984375,2.3193359375,-0.244140625
825.6449999809265,0.8427734375,-0.36376953125,-0.19140625,793.8766668240229,793.875,1.666824022890978,0.54931640625,2.01416015625,1.0986328125
825.6499998569489,0.92724609375,-0.14111328125,-0.02294921875,793.8816667000452,793.8800001144409,1.6665856043118765,-10.498046875,-0.54931640625,3.0517578125
825.6549999713898,0.75390625,0.1083984375,-0.11181640625,793.8866668144861,793.8849999904633,1.666824022890978,-2.3193359375,2.0751953125,-4.150390625
825.6599998474121,1.07275390625,0.0322265625,-0.060546875,793.8916666905085,793.8900001049042,1.6665856043118765,-6.16455078125,0.48828125,2.74658203125
825.664999961853,0.76123046875,-0.11572265625,-0.14990234375,793.8966668049494,793.8949999809265,1.666824022890978,-3.41796875,1.46484375,-0.1220703125
