t,x,y,z,time_from_sync,aligned_time,time_diff_ms,gyro_x,gyro_y,gyro_z
42.91499996185303,0.04345703125,0.32177734375,0.97509765625,9.001666784286499,9.0,1.6667842864990234,0.0,0.0,0.0
42.919999837875366,0.03759765625,0.32177734375,0.9736328125,9.006666660308838,9.005000114440918,1.6665458679199219,0.0,0.0,0.0
42.92499995231629,0.0419921875,0.32763671875,0.978515625,9.011666774749765,9.009999990463257,1.6667842865079052,0.0,0.0,0.0
42.92999982833862,0.04638671875,0.32421875,0.9794921875,9.016666650772097,9.015000104904177,1.6665458679199219,0.0,0.0,0.0
42.93499994277954,0.04052734375,0.3212890625,0.97119140625,9.021666765213013,9.019999980926514,1.6667842864990234,0.0,0.0,0.0
42.93999981880188,0.03857421875,0.326171875,0.97607421875,9.026666641235352,9.025000095367432,1.6665458679199219,0.0,0.0,0.0
42.9449999332428,0.046875,0.3212890625,0.9755859375,9.03166675567627,9.029999971389778,1.666784286491918,0.0,0.0,0.0
42.94999980926514,0.0390625,0.32421875,0.9765625,9.036666631698608,9.035000085830688,1.6665458679199219,0.0,0.0,0.0
42.954999923706055,0.03955078125,0.3232421875,0.9814453125,9.041666746139526,9.039999961853027,1.6667842864990234,0.0,0.0,0.0
42.9599997997284,0.0478515625,0.32373046875,0.97705078125,9.046666622161872,9.045000076293944,1.6665458679288037,0.0,0.0,0.0
42.96499991416931,0.04150390625,0.32275390625,0.97216796875,9.051666736602783,9.049999952316284,1.6667842864990234,0.0,0.0,0.0
42.96999979019165,0.0390625,0.322265625,0.97802734375,9.056666612625122,9.05500006675721,1.6665458679128164,0.0,0.0,0.0
42.97499990463257,0.04541015625,0.3212890625,0.97998046875,9.06166672706604,9.059999942779534,1.6667842865061289,0.0,0.0,0.0
42.97999978065491,0.04541015625,0.3271484375,0.978515625,9.06666660308838,9.06500005722046,1.6665458679199219,0.0,0.0,0.0
42.98499989509583,0.03662109375,0.3212890625,0.9765625,9.071666717529304,9.070000171661375,1.6665458679288037,0.0,0.0,0.0
42.98999977111816,0.04052734375,0.32470703125,0.9775390625,9.076666593551629,9.075000047683716,1.6665458679128164,0.0,0.0,0.0
42.99499988555908,0.0419921875,0.3203125,0.98046875,9.081666707992554,9.080000162124634,1.6665458679199219,0.0,0.0,0.0
43.0,0.04150390625,0.32080078125,0.974609375,9.086666822433472,9.08500003814698,1.666784286491918,0.0,0.0,0.0
43.00499987602234,0.0439453125,0.322265625,0.9736328125,9.09166669845581,9.09000015258789,1.6665458679199219,0.0,0.0,0.0
43.00999999046326,0.04052734375,0.32421875,0.97802734375,9.096666812896729,9.09500002861023,1.6667842864990234,0.0,0.0,0.0
43.0149998664856,0.044921875,0.32275390625,0.97802734375,9.101666688919074,9.100000143051147,1.6665458679270273,0.0,0.0,0.0
43.019999980926514,0.044921875,0.32470703125,0.97412109375,9.106666803359984,9.105000019073486,1.666784286497247,0.0,0.0,0.0
43.02499985694885,0.03955078125,0.3251953125,0.97412109375,9.111666679382324,9.110000133514404,1.6665458679199219,0.0,0.0,0.0
43.02999997138977,0.0458984375,0.32373046875,0.9775390625,9.116666793823242,9.115000009536743,1.6667842864990234,0.0,0.0,0.0
43.03499984741211,0.04736328125,0.3212890625,0.97705078125,9.12166666984558,9.120000123977668,1.66654586791104,0.0,0.0,0.0
43.03999996185303,0.0380859375,0.3203125,0.97705078125,9.1266667842865,9.125,1.6667842865007998,0.0,0.0,0.0
43.044999837875366,0.04150390625,0.32763671875,0.978515625,9.131666660308838,9.130000114440918,1.6665458679199219,0.0,0.0,0.0
43.04999995231629,0.044921875,0.3212890625,0.97412109375,9.136666774749765,9.134999990463257,1.6667842865079052,0.0,0.0,0.0
43.05499982833862,0.041015625,0.32080078125,0.97021484375,9.141666650772097,9.140000104904177,1.6665458679199219,0.0,0.0,0.0
43.05999994277954,0.0390625,0.328125,0.98095703125,9.146666765213013,9.144999980926514,1.6667842864990234,0.0,0.0,0.0
43.06499981880188,0.04638671875,0.32568359375,0.98046875,9.151666641235352,9.150000095367432,1.6665458679199219,0.0,0.0,0.0
43.0699999332428,0.04150390625,0.32568359375,0.974609375,9.15666675567627,9.154999971389778,1.666784286491918,0.0,0.0,0.0
43.07499980926514,0.04345703125,0.3232421875,0.9775390625,9.161666631698608,9.160000085830688,1.6665458679199219,0.0,0.0,0.0
43.079999923706055,0.0419921875,0.32373046875,0.9794921875,9.166666746139526,9.164999961853027,1.6667842864990234,0.0,0.0,0.0
43.0849997997284,0.03955078125,0.32568359375,0.9765625,9.171666622161872,9.170000076293944,1.6665458679288037,0.0,0.0,0.0
43.08999991416931,0.041015625,0.32275390625,0.97509765625,9.176666736602783,9.174999952316284,1.6667842864990234,0.0,0.0,0.0
43.09499979019165,0.04052734375,0.31982421875,0.97265625,9.181666612625122,9.18000006675721,1.6665458679128164,0.0,0.0,0.0
43.09999990463257,0.04296875,0.3232421875,0.978515625,9.18666672706604,9.184999942779534,1.6667842865061289,0.0,0.0,0.0
43.10499978065491,0.0439453125,0.32421875,0.97705078125,9.19166660308838,9.19000005722046,1.6665458679199219,0.0,0.0,0.0
43.10999989509583,0.03857421875,0.3212890625,0.97314453125,9.196666717529304,9.195000171661375,1.6665458679288037,0.0,0.0,0.0
43.11499977111816,0.0439453125,0.326171875,0.97607421875,9.201666593551629,9.200000047683716,1.6665458679128164,0.0,0.0,0.0
43.11999988555908,0.046875,0.3203125,0.9765625,9.206666707992554,9.205000162124634,1.6665458679199219,0.0,0.0,0.0
43.125,0.0390625,0.32470703125,0.97509765625,9.211666822433472,9.21000003814698,1.666784286491918,0.0,0.0,0.0
43.12999987602234,0.03857421875,0.326171875,0.97607421875,9.21666669845581,9.21500015258789,1.6665458679199219,0.0,0.0,0.0
43.13499999046326,0.04638671875,0.32568359375,0.9755859375,9.221666812896729,9.22000002861023,1.6667842864990234,0.0,0.0,0.0
43.1399998664856,0.04443359375,0.32421875,0.97412109375,9.226666688919074,9.225000143051147,1.6665458679270273,0.0,0.0,0.0
43.144999980926514,0.0361328125,0.3193359375,0.9765625,9.231666803359984,9.230000019073486,1.666784286497247,0.0,0.0,0.0
43.14999985694885,0.04736328125,0.3232421875,0.97900390625,9.236666679382324,9.235000133514404,1.6665458679199219,0.0,0.0,0.0
43.15499997138977,0.04345703125,0.32275390625,0.9716796875,9.241666793823242,9.240000009536743,1.6667842864990234,0.0,0.0,0.0
43.15999984741211,0.03515625,0.3251953125,0.978515625,9.24666666984558,9.245000123977668,1.66654586791104,0.0,0.0,0.0
43.16499996185303,0.04345703125,0.3203125,0.97509765625,9.2516667842865,9.25,1.6667842865007998,0.0,0.0,0.0
43.169999837875366,0.04541015625,0.32421875,0.97607421875,9.256666660308838,9.255000114440918,1.6665458679199219,0.0,0.0,0.0
43.17499995231629,0.03857421875,0.32421875,0.97802734375,9.261666774749765,9.259999990463257,1.6667842865079052,0.0,0.0,0.0
43.17999982833862,0.04150390625,0.322265625,0.97607421875,9.266666650772097,9.265000104904177,1.6665458679199219,0.0,0.0,0.0
43.18499994277954,0.04541015625,0.32666015625,0.9765625,9.271666765213013,9.269999980926514,1.6667842864990234,0.0,0.0,0.0
43.18999981880188,0.0419921875,0.3212890625,0.9755859375,9.276666641235352,9.275000095367432,1.6665458679199219,0.0,0.0,0.0
43.1949999332428,0.04248046875,0.326171875,0.97607421875,9.28166675567627,9.279999971389778,1.666784286491918,0.0,0.0,0.0
43.19999980926514,0.04052734375,0.32373046875,0.97705078125,9.286666631698608,9.285000085830688,1.6665458679199219,0.0,0.0,0.0
43.204999923706055,0.04443359375,0.32421875,0.97607421875,9.291666746139526,9.289999961853027,1.6667842864990234,0.0,0.0,0.0
43.2099997997284,0.044921875,0.322265625,0.9765625,9.296666622161872,9.295000076293944,1.6665458679288037,0.0,0.0,0.0
43.21499991416931,0.03564453125,0.322265625,0.97802734375,9.301666736602783,9.299999952316284,1.6667842864990234,0.0,0.0,0.0
43.21999979019165,0.04150390625,0.3232421875,0.97802734375,9.306666612625122,9.30500006675721,1.6665458679128164,0.0,0.0,0.0
43.22499990463257,0.04541015625,0.3232421875,0.97509765625,9.31166672706604,9.309999942779534,1.6667842865061289,0.0,0.0,0.0
43.22999978065491,0.0361328125,0.3212890625,0.9736328125,9.31666660308838,9.31500005722046,1.6665458679199219,0.0,0.0,0.0
43.23499989509583,0.041015625,0.32861328125,0.97802734375,9.321666717529304,9.320000171661375,1.6665458679288037,0.0,0.0,0.0
43.23999977111816,0.0478515625,0.3232421875,0.97314453125,9.326666593551629,9.325000047683716,1.6665458679128164,0.0,0.0,0.0
43.24499988555908,0.041015625,0.3251953125,0.97265625,9.331666707992554,9.330000162124634,1.6665458679199219,0.0,0.0,0.0
43.25,0.03955078125,0.32421875,0.9755859375,9.336666822433472,9.33500003814698,1.666784286491918,0.0,0.0,0.0
43.25499987602234,0.04833984375,0.32373046875,0.97705078125,9.34166669845581,9.34000015258789,1.6665458679199219,0.0,0.0,0.0
43.25999999046326,0.0400390625,0.3203125,0.97265625,9.346666812896729,9.34500002861023,1.6667842864990234,0.0,0.0,0.0
43.2649998664856,0.0380859375,0.328125,0.97705078125,9.351666688919074,9.350000143051147,1.6665458679270273,0.0,0.0,0.0
43.269999980926514,0.04638671875,0.32177734375,0.97607421875,9.356666803359984,9.355000019073486,1.666784286497247,0.0,0.0,0.0
43.27499985694885,0.04541015625,0.32275390625,0.97607421875,9.361666679382324,9.360000133514404,1.6665458679199219,0.0,0.0,0.0
43.27999997138977,0.037109375,0.32666015625,0.9794921875,9.366666793823242,9.365000009536743,1.6667842864990234,0.0,0.0,0.0
43.28499984741211,0.04248046875,0.32080078125,0.97705078125,9.37166666984558,9.370000123977668,1.66654586791104,0.0,0.0,0.0
43.28999996185303,0.04541015625,0.3251953125,0.97607421875,9.3766667842865,9.375,1.6667842865007998,0.0,0.0,0.0
43.294999837875366,0.0400390625,0.32080078125,0.974609375,9.381666660308838,9.380000114440918,1.6665458679199219,0.0,0.0,0.0
43.29999995231629,0.04150390625,0.32177734375,0.97802734375,9.386666774749765,9.384999990463257,1.6667842865079052,0.0,0.0,0.0
43.30499982833862,0.044921875,0.326171875,0.97607421875,9.391666650772097,9.390000104904177,1.6665458679199219,0.0,0.0,0.0
43.30999994277954,0.041015625,0.3212890625,0.97509765625,9.396666765213013,9.394999980926514,1.6667842864990234,0.0,0.0,0.0
43.31499981880188,0.04248046875,0.322265625,0.9755859375,9.401666641235352,9.400000095367432,1.6665458679199219,0.0,0.0,0.0
43.3199999332428,0.0390625,0.3251953125,0.9794921875,9.40666675567627,9.404999971389778,1.666784286491918,0.0,0.0,0.0
43.32499980926514,0.04296875,0.3212890625,0.9775390625,9.411666631698608,9.410000085830688,1.6665458679199219,0.0,0.0,0.0
43.329999923706055,0.04736328125,0.3232421875,0.97509765625,9.416666746139526,9.414999961853027,1.6667842864990234,0.0,0.0,0.0
43.3349997997284,0.037109375,0.31982421875,0.97314453125,9.421666622161872,9.420000076293944,1.6665458679288037,0.0,0.0,0.0
43.33999991416931,0.0390625,0.32568359375,0.9755859375,9.426666736602783,9.424999952316284,1.6667842864990234,0.0,0.0,0.0
43.34499979019165,0.05029296875,0.32177734375,0.9755859375,9.431666612625122,9.43000006675721,1.6665458679128164,0.0,0.0,0.0
43.34999990463257,0.03857421875,0.32177734375,0.97705078125,9.43666672706604,9.434999942779534,1.6667842865061289,0.0,0.0,0.0
43.35499978065491,0.03564453125,0.32470703125,0.9755859375,9.44166660308838,9.44000005722046,1.6665458679199219,0.0,0.0,0.0
43.35999989509583,0.04736328125,0.32421875,0.97509765625,9.446666717529304,9.445000171661375,1.6665458679288037,0.0,0.0,0.0
43.36499977111816,0.04150390625,0.3212890625,0.9765625,9.451666593551629,9.450000047683716,1.6665458679128164,0.0,0.0,0.0
43.36999988555908,0.037109375,0.32568359375,0.978515625,9.456666707992554,9.455000162124634,1.6665458679199219,0.0,0.0,0.0
43.375,0.0478515625,0.3232421875,0.9755859375,9.461666822433472,9.46000003814698,1.666784286491918,0.0,0.0,0.0
43.37999987602234,0.0439453125,0.31982421875,0.97314453125,9.46666669845581,9.46500015258789,1.6665458679199219,0.0,0.0,0.0
43.38499999046326,0.03564453125,0.32568359375,0.978515625,9.471666812896729,9.47000002861023,1.6667842864990234,0.0,0.0,0.0
43.3899998664856,0.041015625,0.31884765625,0.978515625,9.476666688919074,9.475000143051147,1.6665458679270273,0.0,0.0,0.0
43.394999980926514,0.0458984375,0.32470703125,0.978515625,9.481666803359984,9.480000019073486,1.666784286497247,0.0,0.0,0.0
43.39999985694885,0.04052734375,0.32373046875,0.9794921875,9.486666679382324,9.485000133514404,1.6665458679199219,0.0,0.0,0.0
43.40499997138977,0.03857421875,0.32373046875,0.9775390625,9.491666793823242,9.490000009536743,1.6667842864990234,0.0,0.0,0.0
43.40999984741211,0.04150390625,0.32373046875,0.97705078125,9.49666666984558,9.495000123977668,1.66654586791104,0.0,0.0,0.0
43.41499996185303,0.0419921875,0.3232421875,0.9755859375,9.5016667842865,9.5,1.6667842865007998,0.0,0.0,0.0
43.419999837875366,0.04150390625,0.32275390625,0.97705078125,9.506666660308838,9.505000114440918,1.6665458679199219,0.0,0.0,0.0
43.42499995231629,0.04052734375,0.32470703125,0.9775390625,9.511666774749765,9.509999990463257,1.6667842865079052,0.0,0.0,0.0
43.42999982833862,0.04150390625,0.3212890625,0.9775390625,9.516666650772097,9.515000104904177,1.6665458679199219,0.0,0.0,0.0
43.43499994277954,0.04248046875,0.32568359375,0.97607421875,9.521666765213013,9.519999980926514,1.6667842864990234,0.0,0.0,0.0
43.43999981880188,0.0400390625,0.32666015625,0.97705078125,9.526666641235352,9.525000095367432,1.6665458679199219,0.0,0.0,0.0
43.4449999332428,0.04296875,0.32275390625,0.9736328125,9.53166675567627,9.529999971389778,1.666784286491918,0.0,0.0,0.0
43.44999980926514,0.044921875,0.322265625,0.97509765625,9.536666631698608,9.535000085830688,1.6665458679199219,0.0,0.0,0.0
43.454999923706055,0.037109375,0.326171875,0.97705078125,9.541666746139526,9.539999961853027,1.6667842864990234,0.0,0.0,0.0
43.4599997997284,0.04150390625,0.32275390625,0.97412109375,9.546666622161872,9.545000076293944,1.6665458679288037,0.0,0.0,0.0
43.46499991416931,0.0478515625,0.31884765625,0.97509765625,9.551666736602783,9.549999952316284,1.6667842864990234,0.0,0.0,0.0
43.46999979019165,0.04150390625,0.32275390625,0.98046875,9.556666612625122,9.55500006675721,1.6665458679128164,0.0,0.0,0.0
43.47499990463257,0.0361328125,0.32373046875,0.97705078125,9.56166672706604,9.559999942779534,1.6667842865061289,0.0,0.0,0.0
43.47999978065491,0.044921875,0.322265625,0.974609375,9.56666660308838,9.56500005722046,1.6665458679199219,0.0,0.0,0.0
43.48499989509583,0.04541015625,0.32080078125,0.9765625,9.571666717529304,9.570000171661375,1.6665458679288037,0.0,0.0,0.0
43.48999977111816,0.0400390625,0.3251953125,0.9794921875,9.576666593551629,9.575000047683716,1.6665458679128164,0.0,0.0,0.0
43.49499988555908,0.04052734375,0.32177734375,0.97900390625,9.581666707992554,9.580000162124634,1.6665458679199219,0.0,0.0,0.0
43.5,0.04443359375,0.326171875,0.9775390625,9.586666822433472,9.58500003814698,1.666784286491918,0.0,0.0,0.0
43.50499987602234,0.03857421875,0.3232421875,0.9765625,9.59166669845581,9.59000015258789,1.6665458679199219,0.0,0.0,0.0
43.50999999046326,0.0390625,0.3251953125,0.97705078125,9.596666812896729,9.59500002861023,1.6667842864990234,0.0,0.0,0.0
43.5149998664856,0.04638671875,0.32275390625,0.9775390625,9.601666688919074,9.600000143051147,1.6665458679270273,0.0,0.0,0.0
43.519999980926514,0.04248046875,0.32275390625,0.9765625,9.606666803359984,9.605000019073486,1.666784286497247,0.0,0.0,0.0
43.52499985694885,0.03857421875,0.32568359375,0.97705078125,9.611666679382324,9.610000133514404,1.6665458679199219,0.0,0.0,0.0
43.52999997138977,0.04345703125,0.3193359375,0.97412109375,9.616666793823242,9.615000009536743,1.6667842864990234,0.0,0.0,0.0
43.53499984741211,0.0458984375,0.32275390625,0.97509765625,9.62166666984558,9.620000123977668,1.66654586791104,0.0,0.0,0.0
43.53999996185303,0.03857421875,0.3232421875,0.978515625,9.6266667842865,9.625,1.6667842865007998,0.0,0.0,0.0
43.544999837875366,0.0400390625,0.32421875,0.9736328125,9.631666660308838,9.630000114440918,1.6665458679199219,0.0,0.0,0.0
43.54999995231629,0.04296875,0.32421875,0.9775390625,9.636666774749765,9.634999990463257,1.6667842865079052,0.0,0.0,0.0
43.55499982833862,0.04541015625,0.32421875,0.9775390625,9.641666650772097,9.640000104904177,1.6665458679199219,0.0,0.0,0.0
43.55999994277954,0.041015625,0.32177734375,0.9755859375,9.646666765213013,9.644999980926514,1.6667842864990234,0.0,0.0,0.0
43.56499981880188,0.03857421875,0.32666015625,0.97802734375,9.651666641235352,9.650000095367432,1.6665458679199219,0.0,0.0,0.0
43.5699999332428,0.04296875,0.3232421875,0.97705078125,9.65666675567627,9.654999971389778,1.666784286491918,0.0,0.0,0.0
43.57499980926514,0.0380859375,0.3251953125,0.97607421875,9.661666631698608,9.660000085830688,1.6665458679199219,0.0,0.0,0.0
43.579999923706055,0.0380859375,0.326171875,0.97802734375,9.666666746139526,9.664999961853027,1.6667842864990234,0.0,0.0,0.0
43.5849997997284,0.0458984375,0.32080078125,0.9755859375,9.671666622161872,9.670000076293944,1.6665458679288037,0.0,0.0,0.0
43.58999991416931,0.04541015625,0.32177734375,0.97607421875,9.676666736602783,9.674999952316284,1.6667842864990234,0.0,0.0,0.0
43.59499979019165,0.0361328125,0.32275390625,0.9794921875,9.681666612625122,9.68000006675721,1.6665458679128164,0.0,0.0,0.0
43.59999990463257,0.04541015625,0.32275390625,0.9755859375,9.68666672706604,9.684999942779534,1.6667842865061289,0.0,0.0,0.0
43.60499978065491,0.0439453125,0.3212890625,0.97705078125,9.69166660308838,9.69000005722046,1.6665458679199219,0.0,0.0,0.0
43.60999989509583,0.03466796875,0.32763671875,0.97509765625,9.696666717529304,9.695000171661375,1.6665458679288037,0.0,0.0,0.0
43.61499977111816,0.03955078125,0.32275390625,0.97265625,9.701666593551629,9.700000047683716,1.6665458679128164,0.0,0.0,0.0
43.61999988555908,0.0458984375,0.32421875,0.97412109375,9.706666707992554,9.705000162124634,1.6665458679199219,0.0,0.0,0.0
43.625,0.04248046875,0.3232421875,0.9814453125,9.711666822433472,9.71000003814698,1.666784286491918,0.0,0.0,0.0
43.62999987602234,0.0390625,0.322265625,0.9755859375,9.71666669845581,9.71500015258789,1.6665458679199219,0.0,0.0,0.0
43.63499999046326,0.04345703125,0.32177734375,0.9775390625,9.721666812896729,9.72000002861023,1.6667842864990234,0.0,0.0,0.0
43.6399998664856,0.044921875,0.32275390625,0.97509765625,9.726666688919074,9.725000143051147,1.6665458679270273,0.0,0.0,0.0
43.644999980926514,0.0400390625,0.32421875,0.97705078125,9.731666803359984,9.730000019073486,1.666784286497247,0.0,0.0,0.0
43.64999985694885,0.04150390625,0.32421875,0.9765625,9.736666679382324,9.735000133514404,1.6665458679199219,0.0,0.0,0.0
43.65499997138977,0.0419921875,0.32177734375,0.974609375,9.741666793823242,9.740000009536743,1.6667842864990234,0.0,0.0,0.0
43.65999984741211,0.04150390625,0.322265625,0.97900390625,9.74666666984558,9.745000123977668,1.66654586791104,0.0,0.0,0.0
43.66499996185303,0.03857421875,0.32470703125,0.97705078125,9.7516667842865,9.75,1.6667842865007998,0.0,0.0,0.0
43.669999837875366,0.04150390625,0.32177734375,0.97607421875,9.756666660308838,9.755000114440918,1.6665458679199219,0.0,0.0,0.0
43.67499995231629,0.0458984375,0.32421875,0.97802734375,9.761666774749765,9.759999990463257,1.6667842865079052,0.0,0.0,0.0
43.67999982833862,0.041015625,0.3212890625,0.974609375,9.766666650772097,9.765000104904177,1.6665458679199219,0.0,0.0,0.0
43.68499994277954,0.0380859375,0.32177734375,0.97509765625,9.771666765213013,9.769999980926514,1.6667842864990234,0.0,0.0,0.0
43.68999981880188,0.0458984375,0.32470703125,0.97998046875,9.776666641235352,9.775000095367432,1.6665458679199219,0.0,0.0,0.0
43.6949999332428,0.04638671875,0.3232421875,0.9794921875,9.78166675567627,9.779999971389778,1.666784286491918,0.0,0.0,0.0
43.69999980926514,0.0361328125,0.32666015625,0.97509765625,9.786666631698608,9.785000085830688,1.6665458679199219,0.0,0.0,0.0
43.704999923706055,0.044921875,0.322265625,0.97509765625,9.791666746139526,9.789999961853027,1.6667842864990234,0.0,0.0,0.0
43.7099997997284,0.0458984375,0.32080078125,0.974609375,9.796666622161872,9.795000076293944,1.6665458679288037,0.0,0.0,0.0
43.71499991416931,0.04150390625,0.326171875,0.97802734375,9.801666736602783,9.799999952316284,1.6667842864990234,0.0,0.0,0.0
43.71999979019165,0.03759765625,0.3203125,0.9736328125,9.806666612625122,9.80500006675721,1.6665458679128164,0.0,0.0,0.0
43.72499990463257,0.04248046875,0.322265625,0.9765625,9.81166672706604,9.809999942779534,1.6667842865061289,0.0,0.0,0.0
43.72999978065491,0.03955078125,0.32568359375,0.98046875,9.81666660308838,9.81500005722046,1.6665458679199219,0.0,0.0,0.0
43.73499989509583,0.0380859375,0.3232421875,0.9755859375,9.821666717529304,9.820000171661375,1.6665458679288037,0.0,0.0,0.0
43.73999977111816,0.04296875,0.32177734375,0.97265625,9.826666593551629,9.825000047683716,1.6665458679128164,0.0,0.0,0.0
43.74499988555908,0.04345703125,0.328125,0.97607421875,9.831666707992554,9.830000162124634,1.6665458679199219,0.0,0.0,0.0
43.75,0.04052734375,0.3232421875,0.9775390625,9.836666822433472,9.83500003814698,1.666784286491918,0.0,0.0,0.0
43.75499987602234,0.04296875,0.31982421875,0.974609375,9.84166669845581,9.84000015258789,1.6665458679199219,0.0,0.0,0.0
43.75999999046326,0.04296875,0.32177734375,0.9775390625,9.846666812896729,9.84500002861023,1.6667842864990234,0.0,0.0,0.0
43.7649998664856,0.0400390625,0.32275390625,0.97802734375,9.851666688919074,9.850000143051147,1.6665458679270273,0.0,0.0,0.0
43.769999980926514,0.03662109375,0.32275390625,0.97509765625,9.856666803359984,9.855000019073486,1.666784286497247,0.0,0.0,0.0
43.77499985694885,0.04736328125,0.32470703125,0.9765625,9.861666679382324,9.860000133514404,1.6665458679199219,0.0,0.0,0.0
43.77999997138977,0.0439453125,0.32275390625,0.97802734375,9.866666793823242,9.865000009536743,1.6667842864990234,0.0,0.0,0.0
43.78499984741211,0.03564453125,0.326171875,0.978515625,9.87166666984558,9.870000123977668,1.66654586791104,0.0,0.0,0.0
43.78999996185303,0.0419921875,0.3203125,0.974609375,9.8766667842865,9.875,1.6667842865007998,0.0,0.0,0.0
43.794999837875366,0.0498046875,0.3203125,0.9736328125,9.881666660308838,9.880000114440918,1.6665458679199219,0.0,0.0,0.0
43.79999995231629,0.0361328125,0.330078125,0.9794921875,9.886666774749765,9.884999990463257,1.6667842865079052,0.0,0.0,0.0
43.80499982833862,0.041015625,0.32177734375,0.97509765625,9.891666650772097,9.890000104904177,1.6665458679199219,0.0,0.0,0.0
43.80999994277954,0.0458984375,0.32080078125,0.97607421875,9.896666765213013,9.894999980926514,1.6667842864990234,0.0,0.0,0.0
43.81499981880188,0.041015625,0.3271484375,0.97998046875,9.901666641235352,9.900000095367432,1.6665458679199219,0.0,0.0,0.0
43.8199999332428,0.03662109375,0.32275390625,0.97705078125,9.90666675567627,9.904999971389778,1.666784286491918,0.0,0.0,0.0
43.82499980926514,0.04052734375,0.32275390625,0.97509765625,9.911666631698608,9.910000085830688,1.6665458679199219,0.0,0.0,0.0
43.829999923706055,0.0458984375,0.3212890625,0.97900390625,9.916666746139526,9.914999961853027,1.6667842864990234,0.0,0.0,0.0
43.8349997997284,0.04150390625,0.32373046875,0.97607421875,9.921666622161872,9.920000076293944,1.6665458679288037,0.0,0.0,0.0
43.83999991416931,0.03662109375,0.32470703125,0.97509765625,9.926666736602783,9.924999952316284,1.6667842864990234,0.0,0.0,0.0
43.84499979019165,0.04296875,0.3232421875,0.97802734375,9.931666612625122,9.93000006675721,1.6665458679128164,0.0,0.0,0.0
43.84999990463257,0.0458984375,0.32373046875,0.97802734375,9.93666672706604,9.934999942779534,1.6667842865061289,0.0,0.0,0.0
43.85499978065491,0.03564453125,0.32421875,0.97412109375,9.94166660308838,9.94000005722046,1.6665458679199219,0.0,0.0,0.0
43.85999989509583,0.0400390625,0.32177734375,0.97119140625,9.946666717529304,9.945000171661375,1.6665458679288037,0.0,0.0,0.0
43.86499977111816,0.05078125,0.32080078125,0.9765625,9.951666593551629,9.950000047683716,1.6665458679128164,0.0,0.0,0.0
43.86999988555908,0.03955078125,0.326171875,0.97900390625,9.956666707992554,9.955000162124634,1.6665458679199219,0.0,0.0,0.0
43.875,0.04248046875,0.322265625,0.9755859375,9.961666822433472,9.96000003814698,1.666784286491918,0.0,0.0,0.0
43.87999987602234,0.04833984375,0.3203125,0.97509765625,9.96666669845581,9.96500015258789,1.6665458679199219,0.0,0.0,0.0
43.88499999046326,0.04052734375,0.3251953125,0.9765625,9.971666812896729,9.97000002861023,1.6667842864990234,0.0,0.0,0.0
43.8899998664856,0.03564453125,0.3232421875,0.98095703125,9.976666688919074,9.975000143051147,1.6665458679270273,0.0,0.0,0.0
43.894999980926514,0.0517578125,0.31884765625,0.9775390625,9.981666803359984,9.980000019073486,1.666784286497247,0.0,0.0,0.0
43.89999985694885,0.04443359375,0.322265625,0.9794921875,9.986666679382324,9.985000133514404,1.6665458679199219,0.0,0.0,0.0
43.90499997138977,0.0322265625,0.326171875,0.97900390625,9.991666793823242,9.990000009536743,1.6667842864990234,0.0,0.0,0.0
43.90999984741211,0.04052734375,0.31884765625,0.97314453125,9.99666666984558,9.995000123977668,1.66654586791104,0.0,0.0,0.0
43.91499996185303,0.05126953125,0.3251953125,0.9765625,10.0016667842865,10.0,1.6667842865007998,0.0,0.0,0.0
43.919999837875366,0.04150390625,0.3251953125,0.978515625,10.006666660308838,10.005000114440918,1.6665458679199219,0.0,0.0,0.0
43.92499995231629,0.0380859375,0.3212890625,0.97509765625,10.011666774749765,10.009999990463257,1.6667842865079052,0.0,0.0,0.0
43.92999982833862,0.04931640625,0.32177734375,0.9755859375,10.016666650772097,10.015000104904177,1.6665458679199219,0.0,0.0,0.0
43.93499994277954,0.0478515625,0.32421875,0.97802734375,10.021666765213013,10.019999980926514,1.6667842864990234,0.0,0.0,0.0
43.93999981880188,0.03857421875,0.3251953125,0.9775390625,10.026666641235352,10.025000095367432,1.6665458679199219,0.0,0.0,0.0
43.9449999332428,0.037109375,0.32275390625,0.9736328125,10.03166675567627,10.029999971389778,1.666784286491918,0.0,0.0,0.0
43.94999980926514,0.04833984375,0.3203125,0.9775390625,10.036666631698608,10.035000085830688,1.6665458679199219,0.0,0.0,0.0
43.954999923706055,0.037109375,0.328125,0.978515625,10.041666746139526,10.039999961853027,1.6667842864990234,0.0,0.0,0.0
43.9599997997284,0.03466796875,0.32470703125,0.97802734375,10.046666622161872,10.045000076293944,1.6665458679288037,0.0,0.0,0.0
43.96499991416931,0.04931640625,0.32080078125,0.97314453125,10.051666736602783,10.049999952316284,1.6667842864990234,0.0,0.0,0.0
43.96999979019165,0.046875,0.3232421875,0.97314453125,10.056666612625122,10.05500006675721,1.6665458679128164,0.0,0.0,0.0
43.97499990463257,0.0302734375,0.3251953125,0.97705078125,10.06166672706604,10.059999942779534,1.6667842865061289,0.0,0.0,0.0
43.97999978065491,0.046875,0.3212890625,0.974609375,10.06666660308838,10.06500005722046,1.6665458679199219,0.0,0.0,0.0
43.98499989509583,0.052734375,0.32275390625,0.9755859375,10.071666717529304,10.070000171661375,1.6665458679288037,0.0,0.0,0.0
43.98999977111816,0.03564453125,0.322265625,0.97900390625,10.076666593551629,10.075000047683716,1.6665458679128164,0.0,0.0,0.0
43.99499988555908,0.03515625,0.3251953125,0.97509765625,10.081666707992554,10.080000162124634,1.6665458679199219,0.0,0.0,0.0
44.0,0.046875,0.3193359375,0.974609375,10.086666822433472,10.08500003814698,1.666784286491918,0.0,0.0,0.0
44.00499987602234,0.03564453125,0.330078125,0.978515625,10.09166669845581,10.09000015258789,1.6665458679199219,0.0,0.0,0.0
44.00999999046326,0.03857421875,0.32080078125,0.9755859375,10.096666812896729,10.09500002861023,1.6667842864990234,0.0,0.0,0.0
44.0149998664856,0.04931640625,0.3212890625,0.9755859375,10.101666688919074,10.100000143051147,1.6665458679270273,0.0,0.0,0.0
44.019999980926514,0.0439453125,0.3232421875,0.9794921875,10.106666803359984,10.105000019073486,1.666784286497247,0.0,0.0,0.0
44.02499985694885,0.037109375,0.3232421875,0.97314453125,10.111666679382324,10.110000133514404,1.6665458679199219,0.0,0.0,0.0
44.02999997138977,0.0439453125,0.32177734375,0.97509765625,10.116666793823242,10.115000009536743,1.6667842864990234,0.0,0.0,0.0
44.03499984741211,0.046875,0.32177734375,0.9775390625,10.12166666984558,10.120000123977668,1.66654586791104,0.0,0.0,0.0
44.03999996185303,0.0390625,0.3232421875,0.97705078125,10.1266667842865,10.125,1.6667842865007998,0.0,0.0,0.0
44.044999837875366,0.03759765625,0.322265625,0.9755859375,10.131666660308838,10.130000114440918,1.6665458679199219,0.0,0.0,0.0
44.04999995231629,0.04736328125,0.3212890625,0.97900390625,10.136666774749765,10.134999990463257,1.6667842865079052,0.0,0.0,0.0
44.05499982833862,0.05029296875,0.3232421875,0.9765625,10.141666650772097,10.140000104904177,1.6665458679199219,0.0,0.0,0.0
44.05999994277954,0.03271484375,0.32763671875,0.97900390625,10.146666765213013,10.144999980926514,1.6667842864990234,0.0,0.0,0.0
44.06499981880188,0.04150390625,0.3232421875,0.9736328125,10.151666641235352,10.150000095367432,1.6665458679199219,0.0,0.0,0.0
44.0699999332428,0.052734375,0.32275390625,0.97216796875,10.15666675567627,10.154999971389778,1.666784286491918,0.0,0.0,0.0
44.07499980926514,0.033203125,0.32958984375,0.98046875,10.161666631698608,10.160000085830688,1.6665458679199219,0.0,0.0,0.0
44.079999923706055,0.04052734375,0.32421875,0.9775390625,10.166666746139526,10.164999961853027,1.6667842864990234,0.0,0.0,0.0
44.0849997997284,0.05126953125,0.31982421875,0.97216796875,10.171666622161872,10.170000076293944,1.6665458679288037,0.0,0.0,0.0
44.08999991416931,0.04052734375,0.32568359375,0.97607421875,10.176666736602783,10.174999952316284,1.6667842864990234,0.0,0.0,0.0
44.09499979019165,0.033203125,0.32470703125,0.978515625,10.181666612625122,10.18000006675721,1.6665458679128164,0.0,0.0,0.0
44.09999990463257,0.0498046875,0.32080078125,0.97119140625,10.18666672706604,10.184999942779534,1.6667842865061289,0.0,0.0,0.0
44.10499978065491,0.0478515625,0.322265625,0.97705078125,10.19166660308838,10.19000005722046,1.6665458679199219,0.0,0.0,0.0
44.10999989509583,0.03271484375,0.3271484375,0.97802734375,10.196666717529304,10.195000171661375,1.6665458679288037,0.0,0.0,0.0
44.11499977111816,0.03759765625,0.32421875,0.9775390625,10.201666593551629,10.200000047683716,1.6665458679128164,0.0,0.0,0.0
44.11999988555908,0.0517578125,0.31982421875,0.97607421875,10.206666707992554,10.205000162124634,1.6665458679199219,0.0,0.0,0.0
44.125,0.0341796875,0.32666015625,0.97607421875,10.211666822433472,10.21000003814698,1.666784286491918,0.0,0.0,0.0
44.12999987602234,0.03759765625,0.328125,0.9765625,10.21666669845581,10.21500015258789,1.6665458679199219,0.0,0.0,0.0
44.13499999046326,0.048828125,0.3193359375,0.974609375,10.221666812896729,10.22000002861023,1.6667842864990234,0.0,0.0,0.0
44.1399998664856,0.04736328125,0.32080078125,0.9755859375,10.226666688919074,10.225000143051147,1.6665458679270273,0.0,0.0,0.0
44.144999980926514,0.03271484375,0.32568359375,0.978515625,10.231666803359984,10.230000019073486,1.666784286497247,0.0,0.0,0.0
44.14999985694885,0.04931640625,0.32421875,0.97705078125,10.236666679382324,10.235000133514404,1.6665458679199219,0.0,0.0,0.0
44.15499997138977,0.04931640625,0.3203125,0.97705078125,10.241666793823242,10.240000009536743,1.6667842864990234,0.0,0.0,0.0
44.15999984741211,0.0361328125,0.32470703125,0.9775390625,10.24666666984558,10.245000123977668,1.66654586791104,0.0,0.0,0.0
44.16499996185303,0.0380859375,0.32275390625,0.97705078125,10.2516667842865,10.25,1.6667842865007998,0.0,0.0,0.0
44.169999837875366,0.0478515625,0.32421875,0.97705078125,10.256666660308838,10.255000114440918,1.6665458679199219,0.0,0.0,0.0
44.17499995231629,0.04541015625,0.3212890625,0.9755859375,10.261666774749765,10.259999990463257,1.6667842865079052,0.0,0.0,0.0
44.17999982833862,0.03369140625,0.3271484375,0.97705078125,10.266666650772097,10.265000104904177,1.6665458679199219,0.0,0.0,0.0
44.18499994277954,0.0439453125,0.32080078125,0.97509765625,10.271666765213013,10.269999980926514,1.6667842864990234,0.0,0.0,0.0
44.18999981880188,0.04833984375,0.3232421875,0.97509765625,10.276666641235352,10.275000095367432,1.6665458679199219,0.0,0.0,0.0
44.1949999332428,0.041015625,0.32470703125,0.97509765625,10.28166675567627,10.279999971389778,1.666784286491918,0.0,0.0,0.0
44.19999980926514,0.04296875,0.3232421875,0.97607421875,10.286666631698608,10.285000085830688,1.6665458679199219,0.0,0.0,0.0
44.204999923706055,0.04931640625,0.32177734375,0.97509765625,10.291666746139526,10.289999961853027,1.6667842864990234,0.0,0.0,0.0
44.2099997997284,0.04052734375,0.32373046875,0.97509765625,10.296666622161872,10.295000076293944,1.6665458679288037,0.0,0.0,0.0
44.21499991416931,0.0380859375,0.326171875,0.9765625,10.301666736602783,10.299999952316284,1.6667842864990234,0.0,0.0,0.0
44.21999979019165,0.04638671875,0.32177734375,0.9765625,10.306666612625122,10.30500006675721,1.6665458679128164,0.0,0.0,0.0
44.22499990463257,0.03955078125,0.3271484375,0.9794921875,10.31166672706604,10.309999942779534,1.6667842865061289,0.0,0.0,0.0
44.22999978065491,0.03857421875,0.32568359375,0.9765625,10.31666660308838,10.31500005722046,1.6665458679199219,0.0,0.0,0.0
44.23499989509583,0.0439453125,0.32421875,0.97314453125,10.321666717529304,10.320000171661375,1.6665458679288037,0.0,0.0,0.0
44.23999977111816,0.04345703125,0.32666015625,0.978515625,10.326666593551629,10.325000047683716,1.6665458679128164,0.0,0.0,0.0
44.24499988555908,0.03857421875,0.32373046875,0.97900390625,10.331666707992554,10.330000162124634,1.6665458679199219,0.0,0.0,0.0
44.25,0.04052734375,0.32275390625,0.9736328125,10.336666822433472,10.33500003814698,1.666784286491918,0.0,0.0,0.0
44.25499987602234,0.04541015625,0.3212890625,0.97998046875,10.34166669845581,10.34000015258789,1.6665458679199219,0.0,0.0,0.0
44.25999999046326,0.04052734375,0.32470703125,0.9794921875,10.346666812896729,10.34500002861023,1.6667842864990234,0.0,0.0,0.0
44.2649998664856,0.03369140625,0.32666015625,0.97509765625,10.351666688919074,10.350000143051147,1.6665458679270273,0.0,0.0,0.0
44.269999980926514,0.0439453125,0.322265625,0.97021484375,10.356666803359984,10.355000019073486,1.666784286497247,0.0,0.0,0.0
44.27499985694885,0.0458984375,0.3212890625,0.97802734375,10.361666679382324,10.360000133514404,1.6665458679199219,0.0,0.0,0.0
44.27999997138977,0.03955078125,0.32666015625,0.98046875,10.366666793823242,10.365000009536743,1.6667842864990234,0.0,0.0,0.0
44.28499984741211,0.04150390625,0.3232421875,0.97607421875,10.37166666984558,10.370000123977668,1.66654586791104,0.0,0.0,0.0
44.28999996185303,0.048828125,0.31884765625,0.9736328125,10.3766667842865,10.375,1.6667842865007998,0.0,0.0,0.0
44.294999837875366,0.0419921875,0.3271484375,0.97802734375,10.381666660308838,10.380000114440918,1.6665458679199219,0.0,0.0,0.0
44.29999995231629,0.0400390625,0.32373046875,0.9736328125,10.386666774749765,10.384999990463257,1.6667842865079052,0.0,0.0,0.0
44.30499982833862,0.04638671875,0.3212890625,0.974609375,10.391666650772097,10.390000104904177,1.6665458679199219,0.0,0.0,0.0
44.30999994277954,0.04296875,0.3251953125,0.97802734375,10.396666765213013,10.394999980926514,1.6667842864990234,0.0,0.0,0.0
44.31499981880188,0.03564453125,0.32421875,0.97607421875,10.401666641235352,10.400000095367432,1.6665458679199219,0.0,0.0,0.0
44.3199999332428,0.04296875,0.3232421875,0.97509765625,10.40666675567627,10.404999971389778,1.666784286491918,0.0,0.0,0.0
44.32499980926514,0.04931640625,0.3212890625,0.9765625,10.411666631698608,10.410000085830688,1.6665458679199219,0.0,0.0,0.0
44.329999923706055,0.03759765625,0.3251953125,0.97412109375,10.416666746139526,10.414999961853027,1.6667842864990234,0.0,0.0,0.0
44.3349997997284,0.03662109375,0.32421875,0.974609375,10.421666622161872,10.420000076293944,1.6665458679288037,0.0,0.0,0.0
44.33999991416931,0.0458984375,0.3193359375,0.97509765625,10.426666736602783,10.424999952316284,1.6667842864990234,0.0,0.0,0.0
44.34499979019165,0.0458984375,0.3232421875,0.9814453125,10.431666612625122,10.43000006675721,1.6665458679128164,0.0,0.0,0.0
44.34999990463257,0.033203125,0.3232421875,0.9755859375,10.43666672706604,10.434999942779534,1.6667842865061289,0.0,0.0,0.0
44.35499978065491,0.05029296875,0.31982421875,0.97412109375,10.44166660308838,10.44000005722046,1.6665458679199219,0.0,0.0,0.0
44.35999989509583,0.05029296875,0.3212890625,0.9775390625,10.446666717529304,10.445000171661375,1.6665458679288037,0.0,0.0,0.0
44.36499977111816,0.03369140625,0.32958984375,0.97900390625,10.451666593551629,10.450000047683716,1.6665458679128164,0.0,0.0,0.0
44.36999988555908,0.0390625,0.3232421875,0.97705078125,10.456666707992554,10.455000162124634,1.6665458679199219,0.0,0.0,0.0
44.375,0.04931640625,0.3212890625,0.9765625,10.461666822433472,10.46000003814698,1.666784286491918,0.0,0.0,0.0
44.37999987602234,0.03564453125,0.32861328125,0.97998046875,10.46666669845581,10.46500015258789,1.6665458679199219,0.0,0.0,0.0
44.38499999046326,0.03662109375,0.32666015625,0.97705078125,10.471666812896729,10.47000002861023,1.6667842864990234,0.0,0.0,0.0
44.3899998664856,0.052734375,0.3193359375,0.97314453125,10.476666688919074,10.475000143051147,1.6665458679270273,0.0,0.0,0.0
44.394999980926514,0.04541015625,0.32666015625,0.97509765625,10.481666803359984,10.480000019073486,1.666784286497247,0.0,0.0,0.0
44.39999985694885,0.033203125,0.32568359375,0.97412109375,10.486666679382324,10.485000133514404,1.6665458679199219,0.0,0.0,0.0
44.40499997138977,0.04296875,0.32177734375,0.97314453125,10.491666793823242,10.490000009536743,1.6667842864990234,0.0,0.0,0.0
44.40999984741211,0.05029296875,0.32177734375,0.97802734375,10.49666666984558,10.495000123977668,1.66654586791104,0.0,0.0,0.0
44.41499996185303,0.0390625,0.326171875,0.97802734375,10.5016667842865,10.5,1.6667842865007998,0.0,0.0,0.0
44.419999837875366,0.03173828125,0.3251953125,0.97265625,10.506666660308838,10.505000114440918,1.6665458679199219,0.0,0.0,0.0
44.42499995231629,0.0517578125,0.3193359375,0.97607421875,10.511666774749765,10.509999990463257,1.6667842865079052,0.0,0.0,0.0
44.42999982833862,0.04150390625,0.3232421875,0.9794921875,10.516666650772097,10.515000104904177,1.6665458679199219,0.0,0.0,0.0
44.43499994277954,0.0322265625,0.32666015625,0.97900390625,10.521666765213013,10.519999980926514,1.6667842864990234,0.0,0.0,0.0
44.43999981880188,0.04296875,0.31884765625,0.97412109375,10.526666641235352,10.525000095367432,1.6665458679199219,0.0,0.0,0.0
44.4449999332428,0.04931640625,0.3173828125,0.97705078125,10.53166675567627,10.529999971389778,1.666784286491918,0.0,0.0,0.0
44.44999980926514,0.03515625,0.32470703125,0.98046875,10.536666631698608,10.535000085830688,1.6665458679199219,0.0,0.0,0.0
44.454999923706055,0.037109375,0.32470703125,0.978515625,10.541666746139526,10.539999961853027,1.6667842864990234,0.0,0.0,0.0
44.4599997997284,0.0498046875,0.31982421875,0.97412109375,10.546666622161872,10.545000076293944,1.6665458679288037,0.0,0.0,0.0
44.46499991416931,0.044921875,0.32568359375,0.97607421875,10.551666736602783,10.549999952316284,1.6667842864990234,0.0,0.0,0.0
44.46999979019165,0.03076171875,0.32568359375,0.97802734375,10.556666612625122,10.55500006675721,1.6665458679128164,0.0,0.0,0.0
44.47499990463257,0.05126953125,0.32080078125,0.9755859375,10.56166672706604,10.559999942779534,1.6667842865061289,0.0,0.0,0.0
44.47999978065491,0.044921875,0.32080078125,0.9765625,10.56666660308838,10.56500005722046,1.6665458679199219,0.0,0.0,0.0
44.48499989509583,0.02978515625,0.3291015625,0.97705078125,10.571666717529304,10.570000171661375,1.6665458679288037,0.0,0.0,0.0
44.48999977111816,0.04638671875,0.322265625,0.9755859375,10.576666593551629,10.575000047683716,1.6665458679128164,0.0,0.0,0.0
44.49499988555908,0.05615234375,0.3193359375,0.970703125,10.581666707992554,10.580000162124634,1.6665458679199219,0.0,0.0,0.0
44.5,0.03125,0.32763671875,0.97607421875,10.586666822433472,10.58500003814698,1.666784286491918,0.0,0.0,0.0
44.50499987602234,0.04443359375,0.32177734375,0.97509765625,10.59166669845581,10.59000015258789,1.6665458679199219,0.0,0.0,0.0
44.50999999046326,0.05029296875,0.31884765625,0.97509765625,10.596666812896729,10.59500002861023,1.6667842864990234,0.0,0.0,0.0
44.5149998664856,0.03662109375,0.32666015625,0.9765625,10.601666688919074,10.600000143051147,1.6665458679270273,0.0,0.0,0.0
44.519999980926514,0.03271484375,0.32470703125,0.9775390625,10.606666803359984,10.605000019073486,1.666784286497247,0.0,0.0,0.0
44.52499985694885,0.0478515625,0.3212890625,0.97412109375,10.611666679382324,10.610000133514404,1.6665458679199219,0.0,0.0,0.0
44.52999997138977,0.04931640625,0.3251953125,0.97705078125,10.616666793823242,10.615000009536743,1.6667842864990234,0.0,0.0,0.0
44.53499984741211,0.03759765625,0.32470703125,0.97900390625,10.62166666984558,10.620000123977668,1.66654586791104,0.0,0.0,0.0
44.53999996185303,0.0390625,0.3251953125,0.97607421875,10.6266667842865,10.625,1.6667842865007998,0.0,0.0,0.0
44.544999837875366,0.048828125,0.32080078125,0.9765625,10.631666660308838,10.630000114440918,1.6665458679199219,0.0,0.0,0.0
44.54999995231629,0.037109375,0.3251953125,0.97607421875,10.636666774749765,10.634999990463257,1.6667842865079052,0.0,0.0,0.0
44.55499982833862,0.03759765625,0.326171875,0.97216796875,10.641666650772097,10.640000104904177,1.6665458679199219,0.0,0.0,0.0
44.55999994277954,0.046875,0.32177734375,0.974609375,10.646666765213013,10.644999980926514,1.6667842864990234,0.0,0.0,0.0
44.56499981880188,0.0458984375,0.3212890625,0.9736328125,10.651666641235352,10.650000095367432,1.6665458679199219,0.0,0.0,0.0
44.5699999332428,0.03271484375,0.32421875,0.97705078125,10.65666675567627,10.654999971389778,1.666784286491918,0.0,0.0,0.0
44.57499980926514,0.052734375,0.3193359375,0.9775390625,10.661666631698608,10.660000085830688,1.6665458679199219,0.0,0.0,0.0
44.579999923706055,0.0439453125,0.3232421875,0.97607421875,10.666666746139526,10.664999961853027,1.6667842864990234,0.0,0.0,0.0
44.5849997997284,0.02880859375,0.32763671875,0.97705078125,10.671666622161872,10.670000076293944,1.6665458679288037,0.0,0.0,0.0
44.58999991416931,0.04443359375,0.3232421875,0.97509765625,10.676666736602783,10.674999952316284,1.6667842864990234,0.0,0.0,0.0
44.59499979019165,0.052734375,0.32080078125,0.97607421875,10.681666612625122,10.68000006675721,1.6665458679128164,0.0,0.0,0.0
44.59999990463257,0.03515625,0.32373046875,0.9775390625,10.68666672706604,10.684999942779534,1.6667842865061289,0.0,0.0,0.0
44.60499978065491,0.03564453125,0.32421875,0.97607421875,10.69166660308838,10.69000005722046,1.6665458679199219,0.0,0.0,0.0
44.60999989509583,0.05224609375,0.322265625,0.97412109375,10.696666717529304,10.695000171661375,1.6665458679288037,0.0,0.0,0.0
44.61499977111816,0.04248046875,0.322265625,0.97802734375,10.701666593551629,10.700000047683716,1.6665458679128164,0.0,0.0,0.0
44.61999988555908,0.0380859375,0.328125,0.97802734375,10.706666707992554,10.705000162124634,1.6665458679199219,0.0,0.0,0.0
44.625,0.04541015625,0.322265625,0.97314453125,10.711666822433472,10.71000003814698,1.666784286491918,0.0,0.0,0.0
44.62999987602234,0.044921875,0.3251953125,0.97705078125,10.71666669845581,10.71500015258789,1.6665458679199219,0.0,0.0,0.0
44.63499999046326,0.03857421875,0.32666015625,0.97705078125,10.721666812896729,10.72000002861023,1.6667842864990234,0.0,0.0,0.0
44.6399998664856,0.04052734375,0.32275390625,0.97412109375,10.726666688919074,10.725000143051147,1.6665458679270273,0.0,0.0,0.0
44.644999980926514,0.04541015625,0.322265625,0.97802734375,10.731666803359984,10.730000019073486,1.666784286497247,0.0,0.0,0.0
44.64999985694885,0.0419921875,0.32763671875,0.97998046875,10.736666679382324,10.735000133514404,1.6665458679199219,0.0,0.0,0.0
44.65499997138977,0.0361328125,0.3212890625,0.97705078125,10.741666793823242,10.740000009536743,1.6667842864990234,0.0,0.0,0.0
44.65999984741211,0.0439453125,0.326171875,0.9765625,10.74666666984558,10.745000123977668,1.66654586791104,0.0,0.0,0.0
44.66499996185303,0.04443359375,0.32421875,0.97900390625,10.7516667842865,10.75,1.6667842865007998,0.0,0.0,0.0
44.669999837875366,0.037109375,0.32373046875,0.97705078125,10.756666660308838,10.755000114440918,1.6665458679199219,0.0,0.0,0.0
44.67499995231629,0.041015625,0.32421875,0.9755859375,10.761666774749765,10.759999990463257,1.6667842865079052,0.0,0.0,0.0
44.67999982833862,0.04833984375,0.32177734375,0.9755859375,10.766666650772097,10.765000104904177,1.6665458679199219,0.0,0.0,0.0
44.68499994277954,0.03955078125,0.32080078125,0.97607421875,10.771666765213013,10.769999980926514,1.6667842864990234,0.0,0.0,0.0
44.68999981880188,0.0361328125,0.32470703125,0.98046875,10.776666641235352,10.775000095367432,1.6665458679199219,0.0,0.0,0.0
44.6949999332428,0.0498046875,0.3193359375,0.97216796875,10.78166675567627,10.779999971389778,1.666784286491918,0.0,0.0,0.0
44.69999980926514,0.03369140625,0.32373046875,0.98046875,10.786666631698608,10.785000085830688,1.6665458679199219,0.0,0.0,0.0
44.704999923706055,0.0458984375,0.32275390625,0.97412109375,10.791666746139526,10.789999961853027,1.6667842864990234,0.0,0.0,0.0
44.7099997997284,0.04833984375,0.3173828125,0.9736328125,10.796666622161872,10.795000076293944,1.6665458679288037,0.0,0.0,0.0
44.71499991416931,0.03515625,0.32666015625,0.9775390625,10.801666736602783,10.799999952316284,1.6667842864990234,0.0,0.0,0.0
44.71999979019165,0.037109375,0.32568359375,0.97900390625,10.806666612625122,10.80500006675721,1.6665458679128164,0.0,0.0,0.0
44.72499990463257,0.048828125,0.32373046875,0.97509765625,10.81166672706604,10.809999942779534,1.6667842865061289,0.0,0.0,0.0
44.72999978065491,0.0390625,0.32568359375,0.98046875,10.81666660308838,10.81500005722046,1.6665458679199219,0.0,0.0,0.0
44.73499989509583,0.041015625,0.3251953125,0.97705078125,10.821666717529304,10.820000171661375,1.6665458679288037,0.0,0.0,0.0
44.73999977111816,0.046875,0.3232421875,0.970703125,10.826666593551629,10.825000047683716,1.6665458679128164,0.0,0.0,0.0
44.74499988555908,0.04541015625,0.32177734375,0.97607421875,10.831666707992554,10.830000162124634,1.6665458679199219,0.0,0.0,0.0
44.75,0.0419921875,0.3251953125,0.9755859375,10.836666822433472,10.83500003814698,1.666784286491918,0.0,0.0,0.0
44.75499987602234,0.03759765625,0.32568359375,0.97705078125,10.84166669845581,10.84000015258789,1.6665458679199219,0.0,0.0,0.0
44.75999999046326,0.04443359375,0.3232421875,0.97705078125,10.846666812896729,10.84500002861023,1.6667842864990234,0.0,0.0,0.0
44.7649998664856,0.0478515625,0.3203125,0.97265625,10.851666688919074,10.850000143051147,1.6665458679270273,0.0,0.0,0.0
44.769999980926514,0.03857421875,0.32373046875,0.9775390625,10.856666803359984,10.855000019073486,1.666784286497247,0.0,0.0,0.0
44.77499985694885,0.04541015625,0.3232421875,0.97705078125,10.861666679382324,10.860000133514404,1.6665458679199219,0.0,0.0,0.0
44.77999997138977,0.0439453125,0.322265625,0.97412109375,10.866666793823242,10.865000009536743,1.6667842864990234,0.0,0.0,0.0
44.78499984741211,0.0380859375,0.32421875,0.970703125,10.87166666984558,10.870000123977668,1.66654586791104,0.0,0.0,0.0
44.78999996185303,0.03955078125,0.32666015625,0.9775390625,10.8766667842865,10.875,1.6667842865007998,0.0,0.0,0.0
44.794999837875366,0.04931640625,0.3212890625,0.978515625,10.881666660308838,10.880000114440918,1.6665458679199219,0.0,0.0,0.0
44.79999995231629,0.04052734375,0.32666015625,0.9755859375,10.886666774749765,10.884999990463257,1.6667842865079052,0.0,0.0,0.0
44.80499982833862,0.03662109375,0.3232421875,0.97509765625,10.891666650772097,10.890000104904177,1.6665458679199219,0.0,0.0,0.0
44.80999994277954,0.044921875,0.3232421875,0.97314453125,10.896666765213013,10.894999980926514,1.6667842864990234,0.0,0.0,0.0
44.81499981880188,0.0439453125,0.322265625,0.97802734375,10.901666641235352,10.900000095367432,1.6665458679199219,0.0,0.0,0.0
44.8199999332428,0.03857421875,0.326171875,0.9755859375,10.90666675567627,10.904999971389778,1.666784286491918,0.0,0.0,0.0
44.82499980926514,0.04248046875,0.322265625,0.9765625,10.911666631698608,10.910000085830688,1.6665458679199219,0.0,0.0,0.0
44.829999923706055,0.044921875,0.3232421875,0.97607421875,10.916666746139526,10.914999961853027,1.6667842864990234,0.0,0.0,0.0
44.8349997997284,0.03759765625,0.32275390625,0.97607421875,10.921666622161872,10.920000076293944,1.6665458679288037,0.0,0.0,0.0
44.83999991416931,0.0400390625,0.32373046875,0.9755859375,10.926666736602783,10.924999952316284,1.6667842864990234,0.0,0.0,0.0
44.84499979019165,0.04736328125,0.32080078125,0.97705078125,10.931666612625122,10.93000006675721,1.6665458679128164,0.0,0.0,0.0
44.84999990463257,0.0390625,0.32421875,0.9755859375,10.93666672706604,10.934999942779534,1.6667842865061289,0.0,0.0,0.0
44.85499978065491,0.04248046875,0.32177734375,0.97265625,10.94166660308838,10.94000005722046,1.6665458679199219,0.0,0.0,0.0
44.85999989509583,0.04736328125,0.32177734375,0.97998046875,10.946666717529304,10.945000171661375,1.6665458679288037,0.0,0.0,0.0
44.86499977111816,0.04296875,0.32421875,0.97900390625,10.951666593551629,10.950000047683716,1.6665458679128164,0.0,0.0,0.0
44.86999988555908,0.03662109375,0.322265625,0.974609375,10.956666707992554,10.955000162124634,1.6665458679199219,0.0,0.0,0.0
44.875,0.041015625,0.322265625,0.97119140625,10.961666822433472,10.96000003814698,1.666784286491918,0.0,0.0,0.0
44.87999987602234,0.0478515625,0.322265625,0.9794921875,10.96666669845581,10.96500015258789,1.6665458679199219,0.0,0.0,0.0
44.88499999046326,0.041015625,0.32763671875,0.9775390625,10.971666812896729,10.97000002861023,1.6667842864990234,0.0,0.0,0.0
44.8899998664856,0.03369140625,0.3232421875,0.97314453125,10.976666688919074,10.975000143051147,1.6665458679270273,0.0,0.0,0.0
44.894999980926514,0.04248046875,0.32177734375,0.9736328125,10.981666803359984,10.980000019073486,1.666784286497247,0.0,0.0,0.0
44.89999985694885,0.04248046875,0.3251953125,0.97705078125,10.986666679382324,10.985000133514404,1.6665458679199219,0.0,0.0,0.0
44.90499997138977,0.03564453125,0.32763671875,0.97802734375,10.991666793823242,10.990000009536743,1.6667842864990234,0.0,0.0,0.0
44.90999984741211,0.04443359375,0.3232421875,0.9775390625,10.99666666984558,10.995000123977668,1.66654586791104,0.0,0.0,0.0
44.91499996185303,0.04541015625,0.3232421875,0.97412109375,11.0016667842865,11.0,1.6667842865007998,0.0,0.0,0.0
44.919999837875366,0.037109375,0.32470703125,0.9755859375,11.006666660308838,11.005000114440918,1.6665458679199219,0.0,0.0,0.0
44.92499995231629,0.04931640625,0.322265625,0.97900390625,11.011666774749765,11.009999990463257,1.6667842865079052,0.0,0.0,0.0
44.92999982833862,0.044921875,0.3212890625,0.9755859375,11.016666650772097,11.015000104904177,1.6665458679199219,0.0,0.0,0.0
44.93499994277954,0.03564453125,0.32470703125,0.9765625,11.021666765213013,11.019999980926514,1.6667842864990234,0.0,0.0,0.0
44.93999981880188,0.0439453125,0.32177734375,0.9755859375,11.026666641235352,11.025000095367432,1.6665458679199219,0.0,0.0,0.0
44.9449999332428,0.048828125,0.3203125,0.9775390625,11.03166675567627,11.029999971389778,1.666784286491918,0.0,0.0,0.0
44.94999980926514,0.04052734375,0.3291015625,0.98193359375,11.036666631698608,11.035000085830688,1.6665458679199219,0.0,0.0,0.0
44.954999923706055,0.03564453125,0.322265625,0.97412109375,11.041666746139526,11.039999961853027,1.6667842864990234,0.0,0.0,0.0
44.9599997997284,0.046875,0.3203125,0.97412109375,11.046666622161872,11.045000076293944,1.6665458679288037,0.0,0.0,0.0
44.96499991416931,0.04638671875,0.322265625,0.98046875,11.051666736602783,11.049999952316284,1.6667842864990234,0.0,0.0,0.0
44.96999979019165,0.03466796875,0.3251953125,0.97998046875,11.056666612625122,11.05500006675721,1.6665458679128164,0.0,0.0,0.0
44.97499990463257,0.0458984375,0.3232421875,0.97412109375,11.06166672706604,11.059999942779534,1.6667842865061289,0.0,0.0,0.0
44.97999978065491,0.0478515625,0.3212890625,0.9765625,11.06666660308838,11.06500005722046,1.6665458679199219,0.0,0.0,0.0
44.98499989509583,0.0361328125,0.3232421875,0.97705078125,11.071666717529304,11.070000171661375,1.6665458679288037,0.0,0.0,0.0
44.98999977111816,0.0361328125,0.32470703125,0.9755859375,11.076666593551629,11.075000047683716,1.6665458679128164,0.0,0.0,0.0
44.99499988555908,0.0498046875,0.32080078125,0.97900390625,11.081666707992554,11.080000162124634,1.6665458679199219,0.0,0.0,0.0
45.0,0.03369140625,0.326171875,0.9755859375,11.086666822433472,11.08500003814698,1.666784286491918,0.0,0.0,0.0
45.00499987602234,0.0419921875,0.32421875,0.9765625,11.09166669845581,11.09000015258789,1.6665458679199219,0.0,0.0,0.0
45.00999999046326,0.05029296875,0.3203125,0.9755859375,11.096666812896729,11.09500002861023,1.6667842864990234,0.0,0.0,0.0
45.0149998664856,0.03955078125,0.32275390625,0.9765625,11.101666688919074,11.100000143051147,1.6665458679270273,0.0,0.0,0.0
45.019999980926514,0.0341796875,0.32470703125,0.97705078125,11.106666803359984,11.105000019073486,1.666784286497247,0.0,0.0,0.0
45.02499985694885,0.0478515625,0.3203125,0.97412109375,11.111666679382324,11.110000133514404,1.6665458679199219,0.0,0.0,0.0
45.02999997138977,0.0498046875,0.3212890625,0.97705078125,11.116666793823242,11.115000009536743,1.6667842864990234,0.0,0.0,0.0
45.03499984741211,0.03515625,0.32861328125,0.97900390625,11.12166666984558,11.120000123977668,1.66654586791104,0.0,0.0,0.0
45.03999996185303,0.04296875,0.32080078125,0.97119140625,11.1266667842865,11.125,1.6667842865007998,0.0,0.0,0.0
45.044999837875366,0.04833984375,0.32275390625,0.974609375,11.131666660308838,11.130000114440918,1.6665458679199219,0.0,0.0,0.0
45.04999995231629,0.0390625,0.32373046875,0.97900390625,11.136666774749765,11.134999990463257,1.6667842865079052,0.0,0.0,0.0
45.05499982833862,0.041015625,0.32470703125,0.9755859375,11.141666650772097,11.140000104904177,1.6665458679199219,0.0,0.0,0.0
45.05999994277954,0.04931640625,0.3203125,0.97705078125,11.146666765213013,11.144999980926514,1.6667842864990234,0.0,0.0,0.0
45.06499981880188,0.03662109375,0.32470703125,0.9765625,11.151666641235352,11.150000095367432,1.6665458679199219,0.0,0.0,0.0
45.0699999332428,0.03271484375,0.326171875,0.9794921875,11.15666675567627,11.154999971389778,1.666784286491918,0.0,0.0,0.0
45.07499980926514,0.0498046875,0.32275390625,0.97607421875,11.161666631698608,11.160000085830688,1.6665458679199219,0.0,0.0,0.0
45.079999923706055,0.04052734375,0.322265625,0.97607421875,11.166666746139526,11.164999961853027,1.6667842864990234,0.0,0.0,0.0
45.0849997997284,0.0302734375,0.326171875,0.98046875,11.171666622161872,11.170000076293944,1.6665458679288037,0.0,0.0,0.0
45.08999991416931,0.052734375,0.3193359375,0.9765625,11.176666736602783,11.174999952316284,1.6667842864990234,0.0,0.0,0.0
45.09499979019165,0.048828125,0.3193359375,0.9755859375,11.181666612625122,11.18000006675721,1.6665458679128164,0.0,0.0,0.0
45.09999990463257,0.02978515625,0.3291015625,0.97900390625,11.18666672706604,11.184999942779534,1.6667842865061289,0.0,0.0,0.0
45.10499978065491,0.041015625,0.32080078125,0.97802734375,11.19166660308838,11.19000005722046,1.6665458679199219,0.0,0.0,0.0
45.10999989509583,0.05126953125,0.3212890625,0.97412109375,11.196666717529304,11.195000171661375,1.6665458679288037,0.0,0.0,0.0
45.11499977111816,0.03955078125,0.3251953125,0.9765625,11.201666593551629,11.200000047683716,1.6665458679128164,0.0,0.0,0.0
45.11999988555908,0.03515625,0.32421875,0.974609375,11.206666707992554,11.205000162124634,1.6665458679199219,0.0,0.0,0.0
45.125,0.05029296875,0.3212890625,0.9765625,11.211666822433472,11.21000003814698,1.666784286491918,0.0,0.0,0.0
45.12999987602234,0.03662109375,0.3271484375,0.97705078125,11.21666669845581,11.21500015258789,1.6665458679199219,0.0,0.0,0.0
45.13499999046326,0.03857421875,0.322265625,0.9716796875,11.221666812896729,11.22000002861023,1.6667842864990234,0.0,0.0,0.0
45.1399998664856,0.046875,0.32275390625,0.9775390625,11.226666688919074,11.225000143051147,1.6665458679270273,0.0,0.0,0.0
45.144999980926514,0.04443359375,0.32568359375,0.9794921875,11.231666803359984,11.230000019073486,1.666784286497247,0.0,0.0,0.0
45.14999985694885,0.0390625,0.32373046875,0.97705078125,11.236666679382324,11.235000133514404,1.6665458679199219,0.0,0.0,0.0
45.15499997138977,0.04833984375,0.32275390625,0.9765625,11.241666793823242,11.240000009536743,1.6667842864990234,0.0,0.0,0.0
45.15999984741211,0.0419921875,0.32177734375,0.97509765625,11.24666666984558,11.245000123977668,1.66654586791104,0.0,0.0,0.0
45.16499996185303,0.03369140625,0.32763671875,0.97607421875,11.2516667842865,11.25,1.6667842865007998,0.0,0.0,0.0
45.169999837875366,0.04638671875,0.31982421875,0.974609375,11.256666660308838,11.255000114440918,1.6665458679199219,0.0,0.0,0.0
45.17499995231629,0.04736328125,0.32177734375,0.97607421875,11.261666774749765,11.259999990463257,1.6667842865079052,0.0,0.0,0.0
45.17999982833862,0.033203125,0.32568359375,0.97705078125,11.266666650772097,11.265000104904177,1.6665458679199219,0.0,0.0,0.0
45.18499994277954,0.03662109375,0.3232421875,0.97705078125,11.271666765213013,11.269999980926514,1.6667842864990234,0.0,0.0,0.0
45.18999981880188,0.05078125,0.31787109375,0.9755859375,11.276666641235352,11.275000095367432,1.6665458679199219,0.0,0.0,0.0
45.1949999332428,0.03857421875,0.32373046875,0.9765625,11.28166675567627,11.279999971389778,1.666784286491918,0.0,0.0,0.0
45.19999980926514,0.03955078125,0.32373046875,0.9755859375,11.286666631698608,11.285000085830688,1.6665458679199219,0.0,0.0,0.0
45.204999923706055,0.0498046875,0.32177734375,0.9775390625,11.291666746139526,11.289999961853027,1.6667842864990234,0.0,0.0,0.0
45.2099997997284,0.0400390625,0.32666015625,0.97509765625,11.296666622161872,11.295000076293944,1.6665458679288037,0.0,0.0,0.0
45.21499991416931,0.03515625,0.32568359375,0.97509765625,11.301666736602783,11.299999952316284,1.6667842864990234,0.0,0.0,0.0
45.21999979019165,0.0498046875,0.3232421875,0.9794921875,11.306666612625122,11.30500006675721,1.6665458679128164,0.0,0.0,0.0
45.22499990463257,0.0458984375,0.3251953125,0.9775390625,11.31166672706604,11.309999942779534,1.6667842865061289,0.0,0.0,0.0
45.22999978065491,0.03271484375,0.326171875,0.9765625,11.31666660308838,11.31500005722046,1.6665458679199219,0.0,0.0,0.0
45.23499989509583,0.04296875,0.32275390625,0.9755859375,11.321666717529304,11.320000171661375,1.6665458679288037,0.0,0.0,0.0
45.23999977111816,0.05322265625,0.3232421875,0.98046875,11.326666593551629,11.325000047683716,1.6665458679128164,0.0,0.0,0.0
45.24499988555908,0.03515625,0.3203125,0.97314453125,11.331666707992554,11.330000162124634,1.6665458679199219,0.0,0.0,0.0
45.25,0.04833984375,0.31982421875,0.9794921875,11.336666822433472,11.33500003814698,1.666784286491918,0.0,0.0,0.0
45.25499987602234,0.0458984375,0.31787109375,0.97412109375,11.34166669845581,11.34000015258789,1.6665458679199219,0.0,0.0,0.0
45.25999999046326,0.03076171875,0.32763671875,0.9765625,11.346666812896729,11.34500002861023,1.6667842864990234,0.0,0.0,0.0
45.2649998664856,0.04150390625,0.322265625,0.97607421875,11.351666688919074,11.350000143051147,1.6665458679270273,0.0,0.0,0.0
45.269999980926514,0.05322265625,0.31884765625,0.9755859375,11.356666803359984,11.355000019073486,1.666784286497247,0.0,0.0,0.0
45.27499985694885,0.02880859375,0.32763671875,0.9755859375,11.361666679382324,11.360000133514404,1.6665458679199219,0.0,0.0,0.0
45.27999997138977,0.041015625,0.3251953125,0.97705078125,11.366666793823242,11.365000009536743,1.6667842864990234,0.0,0.0,0.0
45.28499984741211,0.05322265625,0.3173828125,0.97607421875,11.37166666984558,11.370000123977668,1.66654586791104,0.0,0.0,0.0
45.28999996185303,0.0341796875,0.3271484375,0.974609375,11.3766667842865,11.375,1.6667842865007998,0.0,0.0,0.0
45.294999837875366,0.03759765625,0.326171875,0.97900390625,11.381666660308838,11.380000114440918,1.6665458679199219,0.0,0.0,0.0
45.29999995231629,0.052734375,0.32275390625,0.98095703125,11.386666774749765,11.384999990463257,1.6667842865079052,0.0,0.0,0.0
45.30499982833862,0.04150390625,0.3173828125,0.9716796875,11.391666650772097,11.390000104904177,1.6665458679199219,0.0,0.0,0.0
45.30999994277954,0.03125,0.3271484375,0.97607421875,11.396666765213013,11.394999980926514,1.6667842864990234,0.1220703125,0.3662109375,0.0
45.31499981880188,0.0517578125,0.3212890625,0.978515625,11.401666641235352,11.400000095367432,1.6665458679199219,-0.06103515625,-0.244140625,0.0
45.3199999332428,0.0439453125,0.32080078125,0.97265625,11.40666675567627,11.404999971389778,1.666784286491918,0.0,0.0,0.0
45.32499980926514,0.03515625,0.3271484375,0.9775390625,11.411666631698608,11.410000085830688,1.6665458679199219,0.06103515625,0.18310546875,0.0
45.329999923706055,0.052734375,0.31982421875,0.9765625,11.416666746139526,11.414999961853027,1.6667842864990234,0.0,-0.18310546875,0.0
45.3349997997284,0.04052734375,0.32080078125,0.97265625,11.421666622161872,11.420000076293944,1.6665458679288037,0.0,0.1220703125,0.0
45.33999991416931,0.03369140625,0.3291015625,0.98095703125,11.426666736602783,11.424999952316284,1.6667842864990234,0.06103515625,0.244140625,0.0
45.34499979019165,0.046875,0.3251953125,0.9794921875,11.431666612625122,11.43000006675721,1.6665458679128164,0.0,-0.1220703125,0.0
45.34999990463257,0.0390625,0.3232421875,0.9716796875,11.43666672706604,11.434999942779534,1.6667842865061289,0.0,0.06103515625,0.0
45.35499978065491,0.03271484375,0.32666015625,0.98291015625,11.44166660308838,11.44000005722046,1.6665458679199219,0.06103515625,0.3662109375,0.0
45.35999989509583,0.05224609375,0.32421875,0.97900390625,11.446666717529304,11.445000171661375,1.6665458679288037,0.0,-0.1220703125,0.0
45.36499977111816,0.0439453125,0.32080078125,0.97021484375,11.451666593551629,11.450000047683716,1.6665458679128164,-0.1220703125,0.0,0.0
45.36999988555908,0.03076171875,0.32568359375,0.97802734375,11.456666707992554,11.455000162124634,1.6665458679199219,0.244140625,0.30517578125,0.0
45.375,0.04150390625,0.330078125,0.982421875,11.461666822433472,11.46000003814698,1.666784286491918,-0.18310546875,-0.06103515625,0.0
45.37999987602234,0.05029296875,0.31982421875,0.97265625,11.46666669845581,11.46500015258789,1.6665458679199219,-0.1220703125,-0.18310546875,0.0
45.38499999046326,0.0341796875,0.32275390625,0.97412109375,11.471666812896729,11.47000002861023,1.6667842864990234,0.1220703125,0.30517578125,0.0
45.3899998664856,0.04248046875,0.3291015625,0.98388671875,11.476666688919074,11.475000143051147,1.6665458679270273,0.1220703125,0.0,0.0
45.394999980926514,0.04638671875,0.3203125,0.96728515625,11.481666803359984,11.480000019073486,1.666784286497247,-0.18310546875,-0.30517578125,0.0
45.39999985694885,0.03466796875,0.3251953125,0.98095703125,11.486666679382324,11.485000133514404,1.6665458679199219,0.18310546875,0.06103515625,0.0
45.40499997138977,0.048828125,0.3251953125,0.9794921875,11.491666793823242,11.490000009536743,1.6667842864990234,0.0,-0.244140625,0.0
45.40999984741211,0.0419921875,0.3193359375,0.96826171875,11.49666666984558,11.495000123977668,1.66654586791104,0.0,0.06103515625,0.0
45.41499996185303,0.03466796875,0.32470703125,0.98046875,11.5016667842865,11.5,1.6667842865007998,0.0,0.244140625,0.0
45.419999837875366,0.05078125,0.32568359375,0.97802734375,11.506666660308838,11.505000114440918,1.6665458679199219,0.06103515625,-0.06103515625,0.0
45.42499995231629,0.03466796875,0.32373046875,0.9697265625,11.511666774749765,11.509999990463257,1.6667842865079052,-0.06103515625,0.0,0.0
45.42999982833862,0.0400390625,0.32275390625,0.97802734375,11.516666650772097,11.515000104904177,1.6665458679199219,0.06103515625,0.06103515625,0.0
45.43499994277954,0.0498046875,0.3251953125,0.97998046875,11.521666765213013,11.519999980926514,1.6667842864990234,0.0,-0.1220703125,0.0
45.43999981880188,0.03466796875,0.32470703125,0.974609375,11.526666641235352,11.525000095367432,1.6665458679199219,0.1220703125,0.0,0.0
45.4449999332428,0.04296875,0.3203125,0.9765625,11.53166675567627,11.529999971389778,1.666784286491918,0.0,0.1220703125,0.0
45.44999980926514,0.05029296875,0.32666015625,0.982421875,11.536666631698608,11.535000085830688,1.6665458679199219,0.06103515625,-0.18310546875,0.0
45.454999923706055,0.03466796875,0.328125,0.9755859375,11.541666746139526,11.539999961853027,1.6667842864990234,-0.06103515625,0.0,0.0
45.4599997997284,0.0361328125,0.31982421875,0.97314453125,11.546666622161872,11.545000076293944,1.6665458679288037,0.0,0.06103515625,0.0
45.46499991416931,0.05126953125,0.32373046875,0.9833984375,11.551666736602783,11.549999952316284,1.6667842864990234,0.0,-0.1220703125,0.0
45.46999979019165,0.0380859375,0.3251953125,0.97265625,11.556666612625122,11.55500006675721,1.6665458679128164,0.0,0.0,0.0
45.47499990463257,0.0400390625,0.32373046875,0.9814453125,11.56166672706604,11.559999942779534,1.6667842865061289,-0.06103515625,0.0,0.0
45.47999978065491,0.0546875,0.3212890625,0.98046875,11.56666660308838,11.56500005722046,1.6665458679199219,0.0,-0.18310546875,0.0
45.48499989509583,0.03125,0.322265625,0.97314453125,11.571666717529304,11.570000171661375,1.6665458679288037,-0.06103515625,0.1220703125,0.0
45.48999977111816,0.04052734375,0.32666015625,0.97998046875,11.576666593551629,11.575000047683716,1.6665458679128164,0.0,0.1220703125,0.0
45.49499988555908,0.0546875,0.32275390625,0.97900390625,11.581666707992554,11.580000162124634,1.6665458679199219,0.0,-0.3662109375,0.0
45.5,0.029296875,0.326171875,0.9736328125,11.586666822433472,11.58500003814698,1.666784286491918,0.06103515625,0.30517578125,0.0
45.50499987602234,0.04541015625,0.32421875,0.982421875,11.59166669845581,11.59000015258789,1.6665458679199219,0.0,-0.18310546875,0.0
45.50999999046326,0.0517578125,0.3173828125,0.97216796875,11.596666812896729,11.59500002861023,1.6667842864990234,0.0,-0.30517578125,0.0
45.5149998664856,0.02587890625,0.3291015625,0.97021484375,11.601666688919074,11.600000143051147,1.6665458679270273,0.0,0.244140625,0.0
45.519999980926514,0.04736328125,0.3232421875,0.98193359375,11.606666803359984,11.605000019073486,1.666784286497247,0.0,0.0,0.0
45.52499985694885,0.05517578125,0.322265625,0.9765625,11.611666679382324,11.610000133514404,1.6665458679199219,0.0,-0.18310546875,0.0
45.52999997138977,0.0302734375,0.32666015625,0.97314453125,11.616666793823242,11.615000009536743,1.6667842864990234,0.244140625,0.244140625,0.0
45.53499984741211,0.0380859375,0.3212890625,0.97607421875,11.62166666984558,11.620000123977668,1.66654586791104,-0.1220703125,0.06103515625,0.0
45.53999996185303,0.06005859375,0.32275390625,0.9794921875,11.6266667842865,11.625,1.6667842865007998,0.0,-0.3662109375,0.0
45.544999837875366,0.02685546875,0.3232421875,0.9736328125,11.631666660308838,11.630000114440918,1.6665458679199219,0.06103515625,0.244140625,0.0
45.54999995231629,0.056640625,0.3232421875,0.982421875,11.636666774749765,11.634999990463257,1.6667842865079052,0.0,-0.244140625,0.0
45.55499982833862,0.05712890625,0.31787109375,0.9736328125,11.641666650772097,11.640000104904177,1.6665458679199219,0.0,-0.1220703125,0.0
45.55999994277954,0.02197265625,0.328125,0.97314453125,11.646666765213013,11.644999980926514,1.6667842864990234,0.1220703125,0.30517578125,0.0
45.56499981880188,0.0478515625,0.32666015625,0.9873046875,11.651666641235352,11.650000095367432,1.6665458679199219,0.0,0.0,0.0
45.5699999332428,0.0576171875,0.314453125,0.97265625,11.65666675567627,11.654999971389778,1.666784286491918,0.0,-0.30517578125,0.0
45.57499980926514,0.01953125,0.32666015625,0.97412109375,11.661666631698608,11.660000085830688,1.6665458679199219,0.1220703125,0.42724609375,0.0
45.579999923706055,0.0361328125,0.33203125,0.9853515625,11.666666746139526,11.664999961853027,1.6667842864990234,0.0,0.06103515625,0.0
45.5849997997284,0.06396484375,0.31201171875,0.97412109375,11.671666622161872,11.670000076293944,1.6665458679288037,-0.1220703125,-0.42724609375,0.0
45.58999991416931,0.025390625,0.3251953125,0.97265625,11.676666736602783,11.674999952316284,1.6667842864990234,0.06103515625,0.3662109375,0.0
45.59499979019165,0.0380859375,0.33154296875,0.98681640625,11.681666612625122,11.68000006675721,1.6665458679128164,0.0,0.06103515625,0.0
45.59999990463257,0.044921875,0.31982421875,0.96728515625,11.68666672706604,11.684999942779534,1.6667842865061289,0.0,-0.06103515625,0.0
45.60499978065491,0.02197265625,0.3291015625,0.98095703125,11.69166660308838,11.69000005722046,1.6665458679199219,0.18310546875,0.3662109375,0.0
45.60999989509583,0.052734375,0.32568359375,0.9814453125,11.696666717529304,11.695000171661375,1.6665458679288037,0.0,-0.30517578125,0.0
45.61499977111816,0.05322265625,0.31787109375,0.97314453125,11.701666593551629,11.700000047683716,1.6665458679128164,0.0,-0.18310546875,0.0
45.61999988555908,0.02099609375,0.33251953125,0.97216796875,11.706666707992554,11.705000162124634,1.6665458679199219,0.1220703125,0.54931640625,0.0
45.625,0.06591796875,0.31787109375,0.97216796875,11.711666822433472,11.71000003814698,1.666784286491918,-0.18310546875,-0.42724609375,0.0
45.62999987602234,0.02880859375,0.32470703125,0.96923828125,11.71666669845581,11.71500015258789,1.6665458679199219,0.18310546875,0.3662109375,0.0
45.63499999046326,0.02392578125,0.33056640625,0.98193359375,11.721666812896729,11.72000002861023,1.6667842864990234,0.0,0.30517578125,0.0
45.6399998664856,0.06689453125,0.32275390625,0.97998046875,11.726666688919074,11.725000143051147,1.6665458679270273,-0.06103515625,-0.48828125,0.0
45.644999980926514,0.03515625,0.31787109375,0.97314453125,11.731666803359984,11.730000019073486,1.666784286497247,0.1220703125,0.1220703125,0.0
45.64999985694885,0.02197265625,0.33154296875,0.98095703125,11.736666679382324,11.735000133514404,1.6665458679199219,0.18310546875,0.3662109375,0.0
45.65499997138977,0.0654296875,0.3193359375,0.97802734375,11.741666793823242,11.740000009536743,1.6667842864990234,-0.30517578125,-0.6103515625,0.0
45.65999984741211,0.03466796875,0.31884765625,0.96630859375,11.74666666984558,11.745000123977668,1.66654586791104,0.0,0.18310546875,0.0
45.66499996185303,0.017578125,0.330078125,0.982421875,11.7516667842865,11.75,1.6667842865007998,0.30517578125,0.48828125,0.0
45.669999837875366,0.0625,0.322265625,0.98388671875,11.756666660308838,11.755000114440918,1.6665458679199219,-0.18310546875,-0.42724609375,0.0
45.67499995231629,0.0205078125,0.32373046875,0.970703125,11.761666774749765,11.759999990463257,1.6667842865079052,0.1220703125,0.6103515625,0.0
45.67999982833862,0.041015625,0.33251953125,0.98583984375,11.766666650772097,11.765000104904177,1.6665458679199219,0.0,-0.1220703125,0.0
45.68499994277954,0.06591796875,0.30908203125,0.9697265625,11.771666765213013,11.769999980926514,1.6667842864990234,-0.1220703125,-0.54931640625,0.0
45.68999981880188,0.0263671875,0.322265625,0.96728515625,11.776666641235352,11.775000095367432,1.6665458679199219,0.1220703125,0.732421875,0.0
45.6949999332428,0.0263671875,0.333984375,0.98681640625,11.78166675567627,11.779999971389778,1.666784286491918,0.18310546875,0.18310546875,0.0
45.69999980926514,0.0546875,0.31298828125,0.96630859375,11.786666631698608,11.785000085830688,1.6665458679199219,0.0,-0.18310546875,0.0
45.704999923706055,0.01318359375,0.33056640625,0.982421875,11.791666746139526,11.789999961853027,1.6667842864990234,0.18310546875,0.67138671875,0.0
45.7099997997284,0.05908203125,0.326171875,0.982421875,11.796666622161872,11.795000076293944,1.6665458679288037,-0.06103515625,-0.42724609375,0.0
45.71499991416931,0.0517578125,0.3125,0.96484375,11.801666736602783,11.799999952316284,1.6667842864990234,0.0,0.0,0.0
45.71999979019165,0.015625,0.333984375,0.9755859375,11.806666612625122,11.80500006675721,1.6665458679128164,0.06103515625,0.54931640625,0.0
45.72499990463257,0.04931640625,0.32666015625,0.98486328125,11.81166672706604,11.809999942779534,1.6667842865061289,0.0,-0.18310546875,0.0
45.72999978065491,0.0595703125,0.31005859375,0.96484375,11.81666660308838,11.81500005722046,1.6665458679199219,-0.18310546875,-0.244140625,0.0
45.73499989509583,0.015625,0.333984375,0.978515625,11.821666717529304,11.820000171661375,1.6665458679288037,0.1220703125,0.48828125,0.0
45.73999977111816,0.05126953125,0.32666015625,0.98388671875,11.826666593551629,11.825000047683716,1.6665458679128164,0.0,-0.244140625,0.0
45.74499988555908,0.06005859375,0.3134765625,0.9638671875,11.831666707992554,11.830000162124634,1.6665458679199219,-0.1220703125,-0.18310546875,0.0
45.75,0.0166015625,0.330078125,0.98388671875,11.836666822433472,11.83500003814698,1.666784286491918,0.244140625,0.48828125,0.0
45.75499987602234,0.0634765625,0.32177734375,0.9814453125,11.84166669845581,11.84000015258789,1.6665458679199219,-0.18310546875,-0.42724609375,0.0
45.75999999046326,0.04150390625,0.32080078125,0.970703125,11.846666812896729,11.84500002861023,1.6667842864990234,-0.06103515625,0.06103515625,0.0
45.7649998664856,0.02197265625,0.3310546875,0.9833984375,11.851666688919074,11.850000143051147,1.6665458679270273,0.1220703125,0.30517578125,0.0
45.769999980926514,0.06396484375,0.31689453125,0.97705078125,11.856666803359984,11.855000019073486,1.666784286497247,-0.18310546875,-0.3662109375,0.0
45.77499985694885,0.02001953125,0.32470703125,0.97607421875,11.861666679382324,11.860000133514404,1.6665458679199219,0.1220703125,0.6103515625,0.0
45.77999997138977,0.037109375,0.33154296875,0.9853515625,11.866666793823242,11.865000009536743,1.6667842864990234,0.0,0.1220703125,0.0
45.78499984741211,0.064453125,0.31494140625,0.974609375,11.87166666984558,11.870000123977668,1.66654586791104,-0.18310546875,-0.48828125,0.0
45.78999996185303,0.02099609375,0.322265625,0.970703125,11.8766667842865,11.875,1.6667842865007998,0.18310546875,0.42724609375,0.0
45.794999837875366,0.04052734375,0.33447265625,0.9921875,11.881666660308838,11.880000114440918,1.6665458679199219,0.0,0.0,0.0
45.79999995231629,0.06640625,0.31201171875,0.96435546875,11.886666774749765,11.884999990463257,1.6667842865079052,-0.244140625,-0.48828125,0.0
45.80499982833862,0.02783203125,0.32373046875,0.96435546875,11.891666650772097,11.890000104904177,1.6665458679199219,0.244140625,0.244140625,0.0
45.80999994277954,0.02880859375,0.33251953125,0.98779296875,11.896666765213013,11.894999980926514,1.6667842864990234,0.1220703125,0.3662109375,0.0
45.81499981880188,0.07177734375,0.314453125,0.97412109375,11.901666641235352,11.900000095367432,1.6665458679199219,-0.30517578125,-0.42724609375,0.0
45.8199999332428,0.02978515625,0.3271484375,0.97412109375,11.90666675567627,11.904999971389778,1.666784286491918,0.18310546875,0.3662109375,0.0
45.82499980926514,0.05615234375,0.3212890625,0.98095703125,11.911666631698608,11.910000085830688,1.6665458679199219,-0.18310546875,-0.42724609375,0.0
45.829999923706055,0.05810546875,0.3173828125,0.96728515625,11.916666746139526,11.914999961853027,1.6667842864990234,0.0,-0.1220703125,0.0
45.8349997997284,0.0166015625,0.3291015625,0.9775390625,11.921666622161872,11.920000076293944,1.6665458679288037,0.18310546875,0.48828125,0.0
45.83999991416931,0.05322265625,0.32373046875,0.982421875,11.926666736602783,11.924999952316284,1.6667842864990234,-0.06103515625,-0.18310546875,0.0
45.84499979019165,0.05615234375,0.3154296875,0.97314453125,11.931666612625122,11.93000006675721,1.6665458679128164,0.0,-0.244140625,0.0
45.84999990463257,0.029296875,0.32666015625,0.98046875,11.93666672706604,11.934999942779534,1.6667842865061289,0.06103515625,0.30517578125,0.0
45.85499978065491,0.06689453125,0.31396484375,0.97607421875,11.94166660308838,11.94000005722046,1.6665458679199219,-0.244140625,-0.42724609375,0.0
45.85999989509583,0.04296875,0.318359375,0.96728515625,11.946666717529304,11.945000171661375,1.6665458679288037,0.06103515625,0.0,0.0
45.86499977111816,0.017578125,0.3291015625,0.98486328125,11.951666593551629,11.950000047683716,1.6665458679128164,0.06103515625,0.48828125,0.0
45.86999988555908,0.0625,0.3212890625,0.9833984375,11.956666707992554,11.955000162124634,1.6665458679199219,-0.18310546875,-0.48828125,0.0
45.875,0.0419921875,0.31787109375,0.96728515625,11.961666822433472,11.96000003814698,1.666784286491918,0.06103515625,0.0,0.0
45.87999987602234,0.0224609375,0.330078125,0.97998046875,11.96666669845581,11.96500015258789,1.6665458679199219,0.244140625,0.244140625,0.0
45.88499999046326,0.06396484375,0.31884765625,0.97802734375,11.971666812896729,11.97000002861023,1.6667842864990234,-0.18310546875,-0.54931640625,0.0
45.8899998664856,0.05224609375,0.31640625,0.9658203125,11.976666688919074,11.975000143051147,1.6665458679270273,0.0,-0.06103515625,0.0
45.894999980926514,0.01708984375,0.333984375,0.9814453125,11.981666803359984,11.980000019073486,1.666784286497247,0.244140625,0.54931640625,0.0
45.89999985694885,0.0673828125,0.3173828125,0.9736328125,11.986666679382324,11.985000133514404,1.6665458679199219,-0.244140625,-0.54931640625,0.0
45.90499997138977,0.02099609375,0.326171875,0.9755859375,11.991666793823242,11.990000009536743,1.6667842864990234,0.244140625,0.42724609375,0.0
45.90999984741211,0.0361328125,0.3291015625,0.9833984375,11.99666666984558,11.995000123977668,1.66654586791104,-0.1220703125,0.0,0.0
45.91499996185303,0.0673828125,0.3154296875,0.97119140625,12.0016667842865,12.0,1.6667842865007998,-0.244140625,-0.6103515625,0.0
45.919999837875366,0.03564453125,0.32275390625,0.9697265625,12.006666660308838,12.005000114440918,1.6665458679199219,0.1220703125,0.1220703125,0.0
45.92499995231629,0.05224609375,0.32958984375,0.9814453125,12.011666774749765,12.009999990463257,1.6667842865079052,-0.1220703125,-0.1220703125,0.0
45.92999982833862,0.056640625,0.3134765625,0.97021484375,12.016666650772097,12.015000104904177,1.6665458679199219,-0.06103515625,-0.30517578125,0.0
45.93499994277954,0.01904296875,0.32861328125,0.9775390625,12.021666765213013,12.019999980926514,1.6667842864990234,0.06103515625,0.3662109375,0.0
45.93999981880188,0.0478515625,0.3271484375,0.98388671875,12.026666641235352,12.025000095367432,1.6665458679199219,-0.06103515625,-0.1220703125,0.0
45.9449999332428,0.05859375,0.31884765625,0.97314453125,12.03166675567627,12.029999971389778,1.666784286491918,-0.06103515625,-0.3662109375,0.0
45.94999980926514,0.02587890625,0.32080078125,0.9716796875,12.036666631698608,12.035000085830688,1.6665458679199219,0.1220703125,0.244140625,0.0
45.954999923706055,0.04345703125,0.32958984375,0.98486328125,12.041666746139526,12.039999961853027,1.6667842864990234,0.0,0.0,0.0
45.9599997997284,0.05908203125,0.314453125,0.97607421875,12.046666622161872,12.045000076293944,1.6665458679288037,-0.18310546875,-0.30517578125,0.0
45.96499991416931,0.0244140625,0.32958984375,0.97607421875,12.051666736602783,12.049999952316284,1.6667842864990234,0.18310546875,0.42724609375,0.0
45.96999979019165,0.03173828125,0.3271484375,0.98291015625,12.056666612625122,12.05500006675721,1.6665458679128164,-0.06103515625,0.06103515625,0.0
45.97499990463257,0.04931640625,0.31201171875,0.9697265625,12.06166672706604,12.059999942779534,1.6667842865061289,0.0,-0.06103515625,0.0
45.97999978065491,0.021484375,0.33544921875,0.98681640625,12.06666660308838,12.06500005722046,1.6665458679199219,0.1220703125,0.3662109375,0.0
45.98499989509583,0.05615234375,0.3232421875,0.9794921875,12.071666717529304,12.070000171661375,1.6665458679288037,0.0,-0.244140625,0.0
45.98999977111816,0.04833984375,0.31201171875,0.96728515625,12.076666593551629,12.075000047683716,1.6665458679128164,-0.1220703125,-0.1220703125,0.0
45.99499988555908,0.0224609375,0.33154296875,0.97998046875,12.081666707992554,12.080000162124634,1.6665458679199219,0.18310546875,0.3662109375,0.0
46.0,0.05908203125,0.32177734375,0.97802734375,12.086666822433472,12.08500003814698,1.666784286491918,-0.1220703125,-0.244140625,0.0
46.00499987602234,0.03662109375,0.32177734375,0.97265625,12.09166669845581,12.09000015258789,1.6665458679199219,0.06103515625,0.1220703125,0.0
46.00999999046326,0.03125,0.328125,0.98486328125,12.096666812896729,12.09500002861023,1.6667842864990234,0.1220703125,0.1220703125,0.0
46.0149998664856,0.056640625,0.3154296875,0.97412109375,12.101666688919074,12.100000143051147,1.6665458679270273,-0.18310546875,-0.3662109375,0.0
46.019999980926514,0.037109375,0.328125,0.97119140625,12.106666803359984,12.105000019073486,1.666784286497247,0.06103515625,0.06103515625,0.0
46.02499985694885,0.05322265625,0.32275390625,0.9775390625,12.111666679382324,12.110000133514404,1.6665458679199219,-0.06103515625,-0.3662109375,0.0
46.02999997138977,0.056640625,0.3154296875,0.974609375,12.116666793823242,12.115000009536743,1.6667842864990234,-0.1220703125,-0.1220703125,0.0
46.03499984741211,0.0263671875,0.326171875,0.97509765625,12.12166666984558,12.120000123977668,1.66654586791104,0.0,0.30517578125,0.0
46.03999996185303,0.04248046875,0.3232421875,0.98095703125,12.1266667842865,12.125,1.6667842865007998,0.0,-0.06103515625,0.0
46.044999837875366,0.056640625,0.3173828125,0.97216796875,12.131666660308838,12.130000114440918,1.6665458679199219,0.0,-0.30517578125,0.0
46.04999995231629,0.02685546875,0.3310546875,0.98388671875,12.136666774749765,12.134999990463257,1.6667842865079052,0.244140625,0.1220703125,0.0
46.05499982833862,0.05908203125,0.3203125,0.97802734375,12.141666650772097,12.140000104904177,1.6665458679199219,-0.18310546875,-0.244140625,0.0
46.05999994277954,0.04736328125,0.31591796875,0.97119140625,12.146666765213013,12.144999980926514,1.6667842864990234,0.0,-0.06103515625,0.0
46.06499981880188,0.02490234375,0.32666015625,0.97607421875,12.151666641235352,12.150000095367432,1.6665458679199219,0.06103515625,0.30517578125,0.0
46.0699999332428,0.0537109375,0.3251953125,0.97998046875,12.15666675567627,12.154999971389778,1.666784286491918,0.06103515625,-0.30517578125,0.0
46.07499980926514,0.046875,0.3203125,0.974609375,12.161666631698608,12.160000085830688,1.6665458679199219,0.0,0.0,0.0
46.079999923706055,0.0244140625,0.32763671875,0.97705078125,12.166666746139526,12.164999961853027,1.6667842864990234,0.06103515625,0.30517578125,0.0
46.0849997997284,0.0458984375,0.3271484375,0.984375,12.171666622161872,12.170000076293944,1.6665458679288037,-0.06103515625,-0.1220703125,0.0
46.08999991416931,0.052734375,0.31787109375,0.97607421875,12.176666736602783,12.174999952316284,1.6667842864990234,0.0,-0.244140625,0.0
46.09499979019165,0.02197265625,0.32763671875,0.978515625,12.181666612625122,12.18000006675721,1.6665458679128164,0.1220703125,0.244140625,0.0
46.09999990463257,0.06201171875,0.31640625,0.9736328125,12.18666672706604,12.184999942779534,1.6667842865061289,-0.18310546875,-0.42724609375,0.0
46.10499978065491,0.03515625,0.32275390625,0.97119140625,12.19166660308838,12.19000005722046,1.6665458679199219,0.1220703125,0.0,0.0
46.10999989509583,0.0224609375,0.330078125,0.98046875,12.196666717529304,12.195000171661375,1.6665458679288037,0.1220703125,0.3662109375,0.0
46.11499977111816,0.0595703125,0.32421875,0.982421875,12.201666593551629,12.200000047683716,1.6665458679128164,-0.06103515625,-0.18310546875,0.0
46.11999988555908,0.048828125,0.31689453125,0.97021484375,12.206666707992554,12.205000162124634,1.6665458679199219,0.0,-0.18310546875,0.0
46.125,0.03076171875,0.32861328125,0.97607421875,12.211666822433472,12.21000003814698,1.666784286491918,-0.1220703125,0.06103515625,0.0
46.12999987602234,0.0654296875,0.3212890625,0.97412109375,12.21666669845581,12.21500015258789,1.6665458679199219,-0.06103515625,-0.42724609375,0.0
46.13499999046326,0.0302734375,0.32275390625,0.97509765625,12.221666812896729,12.22000002861023,1.6667842864990234,0.244140625,0.3662109375,0.0
46.1399998664856,0.0283203125,0.3291015625,0.9775390625,12.226666688919074,12.225000143051147,1.6665458679270273,0.0,0.30517578125,0.0
46.144999980926514,0.05908203125,0.31982421875,0.9814453125,12.231666803359984,12.230000019073486,1.666784286497247,-0.06103515625,-0.42724609375,0.0
46.14999985694885,0.0390625,0.32421875,0.9736328125,12.236666679382324,12.235000133514404,1.6665458679199219,0.06103515625,0.0,0.0
46.15499997138977,0.02490234375,0.32861328125,0.9765625,12.241666793823242,12.240000009536743,1.6667842864990234,-0.06103515625,0.30517578125,0.0
46.15999984741211,0.060546875,0.32080078125,0.97705078125,12.24666666984558,12.245000123977668,1.66654586791104,-0.18310546875,-0.30517578125,0.0
46.16499996185303,0.048828125,0.3193359375,0.974609375,12.2516667842865,12.25,1.6667842865007998,0.0,-0.1220703125,0.0
46.169999837875366,0.021484375,0.330078125,0.9814453125,12.256666660308838,12.255000114440918,1.6665458679199219,0.0,0.3662109375,0.0
46.17499995231629,0.0625,0.31787109375,0.9736328125,12.261666774749765,12.259999990463257,1.6667842865079052,-0.18310546875,-0.42724609375,0.0
46.17999982833862,0.02880859375,0.32373046875,0.9736328125,12.266666650772097,12.265000104904177,1.6665458679199219,0.06103515625,0.244140625,0.0
46.18499994277954,0.03466796875,0.3310546875,0.98583984375,12.271666765213013,12.269999980926514,1.6667842864990234,0.06103515625,0.18310546875,0.0
46.18999981880188,0.060546875,0.318359375,0.97412109375,12.276666641235352,12.275000095367432,1.6665458679199219,-0.1220703125,-0.3662109375,0.0
46.1949999332428,0.03076171875,0.32275390625,0.9658203125,12.28166675567627,12.279999971389778,1.666784286491918,0.06103515625,0.18310546875,0.0
46.19999980926514,0.05517578125,0.32666015625,0.98681640625,12.286666631698608,12.285000085830688,1.6665458679199219,-0.18310546875,-0.18310546875,0.0
46.204999923706055,0.044921875,0.3193359375,0.97412109375,12.291666746139526,12.289999961853027,1.6667842864990234,0.0,-0.06103515625,0.0
46.2099997997284,0.02880859375,0.3271484375,0.974609375,12.296666622161872,12.295000076293944,1.6665458679288037,0.0,0.48828125,0.0
46.21499991416931,0.05712890625,0.3203125,0.9775390625,12.301666736602783,12.299999952316284,1.6667842864990234,-0.1220703125,-0.30517578125,0.0
46.21999979019165,0.0498046875,0.31640625,0.97314453125,12.306666612625122,12.30500006675721,1.6665458679128164,0.0,0.1220703125,0.0
46.22499990463257,0.0244140625,0.33251953125,0.97900390625,12.31166672706604,12.309999942779534,1.6667842865061289,0.06103515625,0.42724609375,0.0
46.22999978065491,0.052734375,0.3232421875,0.97998046875,12.31666660308838,12.31500005722046,1.6665458679199219,-0.06103515625,-0.1220703125,0.0
46.23499989509583,0.048828125,0.3154296875,0.9716796875,12.321666717529304,12.320000171661375,1.6665458679288037,0.0,-0.18310546875,0.0
46.23999977111816,0.0205078125,0.32861328125,0.98095703125,12.326666593551629,12.325000047683716,1.6665458679128164,0.1220703125,0.30517578125,0.0
46.24499988555908,0.052734375,0.32080078125,0.97900390625,12.331666707992554,12.330000162124634,1.6665458679199219,-0.18310546875,-0.06103515625,0.0
46.25,0.0419921875,0.322265625,0.9736328125,12.336666822433472,12.33500003814698,1.666784286491918,0.06103515625,0.18310546875,0.0
46.25499987602234,0.02685546875,0.32568359375,0.97607421875,12.34166669845581,12.34000015258789,1.6665458679199219,0.06103515625,0.244140625,0.0
46.25999999046326,0.05615234375,0.32080078125,0.978515625,12.346666812896729,12.34500002861023,1.6667842864990234,-0.1220703125,-0.18310546875,0.0
46.2649998664856,0.04443359375,0.32470703125,0.9755859375,12.351666688919074,12.350000143051147,1.6665458679270273,0.06103515625,0.0,0.0
46.269999980926514,0.02978515625,0.3251953125,0.97265625,12.356666803359984,12.355000019073486,1.666784286497247,0.0,0.244140625,0.0
46.27499985694885,0.05322265625,0.32421875,0.9765625,12.361666679382324,12.360000133514404,1.6665458679199219,0.0,-0.1220703125,0.0
46.27999997138977,0.03076171875,0.3232421875,0.9736328125,12.366666793823242,12.365000009536743,1.6667842864990234,0.06103515625,0.18310546875,0.0
46.28499984741211,0.03369140625,0.326171875,0.9755859375,12.37166666984558,12.370000123977668,1.66654586791104,0.06103515625,0.06103515625,0.0
46.28999996185303,0.0576171875,0.31884765625,0.97802734375,12.3766667842865,12.375,1.6667842865007998,0.0,-0.244140625,0.0
46.294999837875366,0.033203125,0.32080078125,0.970703125,12.381666660308838,12.380000114440918,1.6665458679199219,0.0,0.18310546875,0.0
46.29999995231629,0.03466796875,0.330078125,0.978515625,12.386666774749765,12.384999990463257,1.6667842865079052,0.0,0.1220703125,0.0
46.30499982833862,0.05810546875,0.31787109375,0.97900390625,12.391666650772097,12.390000104904177,1.6665458679199219,0.0,-0.3662109375,0.0
46.30999994277954,0.0400390625,0.3232421875,0.97509765625,12.396666765213013,12.394999980926514,1.6667842864990234,0.0,-0.06103515625,0.0
46.31499981880188,0.02587890625,0.3310546875,0.98291015625,12.401666641235352,12.400000095367432,1.6665458679199219,0.06103515625,0.244140625,0.0
46.3199999332428,0.0556640625,0.3193359375,0.978515625,12.40666675567627,12.404999971389778,1.666784286491918,-0.1220703125,-0.244140625,0.0
46.32499980926514,0.02490234375,0.32373046875,0.97509765625,12.411666631698608,12.410000085830688,1.6665458679199219,0.1220703125,0.06103515625,0.0
46.329999923706055,0.0419921875,0.326171875,0.98095703125,12.416666746139526,12.414999961853027,1.6667842864990234,0.0,0.1220703125,0.0
46.3349997997284,0.05908203125,0.31884765625,0.98046875,12.421666622161872,12.420000076293944,1.6665458679288037,-0.06103515625,-0.1220703125,0.0
46.33999991416931,0.03515625,0.32568359375,0.974609375,12.426666736602783,12.424999952316284,1.6667842864990234,0.0,0.0,0.0
46.34499979019165,0.03271484375,0.3251953125,0.97412109375,12.431666612625122,12.43000006675721,1.6665458679128164,0.0,0.0,0.0
46.34999990463257,0.056640625,0.31787109375,0.9775390625,12.43666672706604,12.434999942779534,1.6667842865061289,-0.06103515625,-0.244140625,0.0
46.35499978065491,0.04443359375,0.32373046875,0.974609375,12.44166660308838,12.44000005722046,1.6665458679199219,0.1220703125,0.18310546875,0.0
46.35999989509583,0.0322265625,0.3271484375,0.9765625,12.446666717529304,12.445000171661375,1.6665458679288037,0.0,0.244140625,0.0
46.36499977111816,0.0546875,0.31982421875,0.9736328125,12.451666593551629,12.450000047683716,1.6665458679128164,-0.1220703125,-0.30517578125,0.0
46.36999988555908,0.04150390625,0.3232421875,0.97998046875,12.456666707992554,12.455000162124634,1.6665458679199219,0.244140625,0.0,0.0
46.375,0.0390625,0.32275390625,0.9755859375,12.461666822433472,12.46000003814698,1.666784286491918,0.0,0.0,0.0
46.37999987602234,0.05615234375,0.318359375,0.9736328125,12.46666669845581,12.46500015258789,1.6665458679199219,-0.1220703125,-0.244140625,0.0
46.38499999046326,0.03515625,0.32421875,0.97802734375,12.471666812896729,12.47000002861023,1.6667842864990234,0.244140625,0.0,0.0
46.3899998664856,0.029296875,0.32373046875,0.978515625,12.476666688919074,12.475000143051147,1.6665458679270273,-0.1220703125,0.30517578125,0.0
46.394999980926514,0.05908203125,0.32373046875,0.97998046875,12.481666803359984,12.480000019073486,1.666784286497247,0.0,-0.244140625,0.0
46.39999985694885,0.029296875,0.326171875,0.97412109375,12.486666679382324,12.485000133514404,1.6665458679199219,0.06103515625,0.1220703125,0.0
46.40499997138977,0.041015625,0.3212890625,0.97900390625,12.491666793823242,12.490000009536743,1.6667842864990234,-0.06103515625,0.06103515625,0.0
46.40999984741211,0.0556640625,0.32177734375,0.978515625,12.49666666984558,12.495000123977668,1.66654586791104,0.0,-0.30517578125,0.0
46.41499996185303,0.0361328125,0.322265625,0.97314453125,12.5016667842865,12.5,1.6667842865007998,0.0,0.06103515625,0.0
46.419999837875366,0.03564453125,0.3251953125,0.9775390625,12.506666660308838,12.505000114440918,1.6665458679199219,0.0,0.1220703125,0.0
46.42499995231629,0.05419921875,0.32080078125,0.98046875,12.511666774749765,12.509999990463257,1.6667842865079052,0.0,-0.1220703125,0.0
46.42999982833862,0.03662109375,0.32177734375,0.97216796875,12.516666650772097,12.515000104904177,1.6665458679199219,0.0,0.1220703125,0.0
46.43499994277954,0.03564453125,0.3251953125,0.9765625,12.521666765213013,12.519999980926514,1.6667842864990234,-0.06103515625,0.18310546875,0.0
46.43999981880188,0.0546875,0.3212890625,0.978515625,12.526666641235352,12.525000095367432,1.6665458679199219,-0.06103515625,-0.30517578125,0.0
46.4449999332428,0.04296875,0.32373046875,0.97607421875,12.53166675567627,12.529999971389778,1.666784286491918,0.06103515625,-0.1220703125,0.0
46.44999980926514,0.041015625,0.3251953125,0.97607421875,12.536666631698608,12.535000085830688,1.6665458679199219,0.0,0.0,0.0
46.454999923706055,0.0537109375,0.3203125,0.9814453125,12.541666746139526,12.539999961853027,1.6667842864990234,0.0,-0.18310546875,0.0
46.4599997997284,0.037109375,0.32275390625,0.97412109375,12.546666622161872,12.545000076293944,1.6665458679288037,0.06103515625,0.1220703125,0.0
46.46499991416931,0.03125,0.32666015625,0.97607421875,12.551666736602783,12.549999952316284,1.6667842864990234,0.0,0.18310546875,0.0
46.46999979019165,0.05615234375,0.322265625,0.98193359375,12.556666612625122,12.55500006675721,1.6665458679128164,-0.06103515625,-0.18310546875,0.0
46.47499990463257,0.02587890625,0.3271484375,0.97265625,12.56166672706604,12.559999942779534,1.6667842865061289,0.0,0.30517578125,0.0
46.47999978065491,0.04736328125,0.318359375,0.98291015625,12.56666660308838,12.56500005722046,1.6665458679199219,-0.06103515625,0.0,0.0
46.48499989509583,0.052734375,0.3232421875,0.97607421875,12.571666717529304,12.570000171661375,1.6665458679288037,-0.06103515625,-0.18310546875,0.0
46.48999977111816,0.02880859375,0.3232421875,0.97314453125,12.576666593551629,12.575000047683716,1.6665458679128164,0.0,0.18310546875,0.0
46.49499988555908,0.037109375,0.328125,0.978515625,12.581666707992554,12.580000162124634,1.6665458679199219,0.0,0.06103515625,0.0
46.5,0.056640625,0.31689453125,0.97607421875,12.586666822433472,12.58500003814698,1.666784286491918,-0.1220703125,-0.3662109375,0.0
46.50499987602234,0.02685546875,0.326171875,0.9697265625,12.59166669845581,12.59000015258789,1.6665458679199219,0.0,0.244140625,0.0
46.50999999046326,0.0380859375,0.328125,0.986328125,12.596666812896729,12.59500002861023,1.6667842864990234,0.0,0.0,0.0
46.5149998664856,0.0595703125,0.32177734375,0.97998046875,12.601666688919074,12.600000143051147,1.6665458679270273,-0.06103515625,-0.244140625,0.0
46.519999980926514,0.03564453125,0.322265625,0.96923828125,12.606666803359984,12.605000019073486,1.666784286497247,0.0,-0.06103515625,0.0
46.52499985694885,0.05029296875,0.32373046875,0.9814453125,12.611666679382324,12.610000133514404,1.6665458679199219,0.0,-0.06103515625,0.0
46.52999997138977,0.05224609375,0.31884765625,0.97412109375,12.616666793823242,12.615000009536743,1.6667842864990234,0.0,-0.30517578125,0.0
46.53499984741211,0.02490234375,0.32861328125,0.97412109375,12.62166666984558,12.620000123977668,1.66654586791104,0.06103515625,0.18310546875,0.0
46.53999996185303,0.0380859375,0.326171875,0.9775390625,12.6266667842865,12.625,1.6667842865007998,-0.06103515625,-0.06103515625,0.0
46.544999837875366,0.05615234375,0.31982421875,0.97412109375,12.631666660308838,12.630000114440918,1.6665458679199219,-0.1220703125,-0.30517578125,0.0
46.54999995231629,0.025390625,0.326171875,0.97705078125,12.636666774749765,12.634999990463257,1.6667842865079052,0.0,0.30517578125,0.0
46.55499982833862,0.05810546875,0.32470703125,0.9853515625,12.641666650772097,12.640000104904177,1.6665458679199219,-0.18310546875,-0.30517578125,0.0
46.55999994277954,0.04150390625,0.31884765625,0.9697265625,12.646666765213013,12.644999980926514,1.6667842864990234,0.06103515625,0.0,0.0
46.56499981880188,0.02197265625,0.32861328125,0.97802734375,12.651666641235352,12.650000095367432,1.6665458679199219,0.06103515625,0.42724609375,0.0
46.5699999332428,0.0517578125,0.32373046875,0.982421875,12.65666675567627,12.654999971389778,1.666784286491918,0.0,-0.244140625,0.0
46.57499980926514,0.0517578125,0.3154296875,0.9677734375,12.661666631698608,12.660000085830688,1.6665458679199219,0.0,-0.244140625,0.0
46.579999923706055,0.021484375,0.32861328125,0.9736328125,12.666666746139526,12.664999961853027,1.6667842864990234,0.06103515625,0.30517578125,0.0
46.5849997997284,0.0517578125,0.32373046875,0.98291015625,12.671666622161872,12.670000076293944,1.6665458679288037,0.0,-0.244140625,0.0
46.58999991416931,0.052734375,0.31591796875,0.96923828125,12.676666736602783,12.674999952316284,1.6667842864990234,-0.06103515625,-0.1220703125,0.0
46.59499979019165,0.0263671875,0.32958984375,0.9755859375,12.681666612625122,12.68000006675721,1.6665458679128164,0.18310546875,0.3662109375,0.0
46.59999990463257,0.05810546875,0.3203125,0.98046875,12.68666672706604,12.684999942779534,1.6667842865061289,-0.1220703125,-0.244140625,0.0
46.60499978065491,0.04150390625,0.32275390625,0.970703125,12.69166660308838,12.69000005722046,1.6665458679199219,0.06103515625,0.0,0.0
46.60999989509583,0.02734375,0.32861328125,0.97705078125,12.696666717529304,12.695000171661375,1.6665458679288037,0.1220703125,0.3662109375,0.0
46.61499977111816,0.06103515625,0.31396484375,0.9755859375,12.701666593551629,12.700000047683716,1.6665458679128164,-0.244140625,-0.48828125,0.0
46.61999988555908,0.04931640625,0.32177734375,0.97216796875,12.706666707992554,12.705000162124634,1.6665458679199219,0.0,-0.18310546875,0.0
46.625,0.03955078125,0.3330078125,0.9853515625,12.711666822433472,12.71000003814698,1.666784286491918,0.06103515625,0.06103515625,0.0
46.62999987602234,0.05908203125,0.31396484375,0.97265625,12.71666669845581,12.71500015258789,1.6665458679199219,-0.1220703125,-0.30517578125,0.0
46.63499999046326,0.02685546875,0.32568359375,0.96923828125,12.721666812896729,12.72000002861023,1.6667842864990234,0.0,0.30517578125,0.0
46.6399998664856,0.0390625,0.3310546875,0.98583984375,12.726666688919074,12.725000143051147,1.6665458679270273,0.06103515625,0.0,0.0
46.644999980926514,0.060546875,0.31494140625,0.9765625,12.731666803359984,12.730000019073486,1.666784286497247,-0.06103515625,-0.244140625,0.0
46.64999985694885,0.0263671875,0.326171875,0.97021484375,12.736666679382324,12.735000133514404,1.6665458679199219,0.0,0.244140625,0.0
46.65499997138977,0.02880859375,0.32666015625,0.9833984375,12.741666793823242,12.740000009536743,1.6667842864990234,0.0,0.18310546875,0.0
46.65999984741211,0.06103515625,0.3193359375,0.978515625,12.74666666984558,12.745000123977668,1.66654586791104,-0.18310546875,-0.3662109375,0.0
46.66499996185303,0.03125,0.326171875,0.97314453125,12.7516667842865,12.75,1.6667842865007998,0.244140625,0.1220703125,0.0
46.669999837875366,0.0322265625,0.3271484375,0.98388671875,12.756666660308838,12.755000114440918,1.6665458679199219,0.0,0.18310546875,0.0
46.67499995231629,0.05224609375,0.31494140625,0.97265625,12.761666774749765,12.759999990463257,1.6667842865079052,0.0,-0.06103515625,0.0
46.67999982833862,0.02197265625,0.32958984375,0.9755859375,12.766666650772097,12.765000104904177,1.6665458679199219,0.06103515625,0.3662109375,0.0
46.68499994277954,0.0458984375,0.32421875,0.978515625,12.771666765213013,12.769999980926514,1.6667842864990234,0.0,-0.1220703125,0.0
46.68999981880188,0.0595703125,0.31689453125,0.97119140625,12.776666641235352,12.775000095367432,1.6665458679199219,0.0,-0.244140625,0.0
46.6949999332428,0.02099609375,0.328125,0.9765625,12.78166675567627,12.779999971389778,1.666784286491918,0.1220703125,0.48828125,0.0
46.69999980926514,0.04541015625,0.32666015625,0.98291015625,12.786666631698608,12.785000085830688,1.6665458679199219,-0.18310546875,-0.06103515625,0.0
46.704999923706055,0.0595703125,0.31689453125,0.974609375,12.791666746139526,12.789999961853027,1.6667842864990234,-0.06103515625,-0.30517578125,0.0
46.7099997997284,0.02783203125,0.32373046875,0.9716796875,12.796666622161872,12.795000076293944,1.6665458679288037,0.06103515625,0.3662109375,0.0
46.71499991416931,0.03515625,0.33251953125,0.98046875,12.801666736602783,12.799999952316284,1.6667842864990234,0.0,0.1220703125,0.0
46.71999979019165,0.0615234375,0.31591796875,0.97314453125,12.806666612625122,12.80500006675721,1.6665458679128164,-0.06103515625,-0.42724609375,0.0
46.72499990463257,0.02392578125,0.3291015625,0.9814453125,12.81166672706604,12.809999942779534,1.6667842865061289,0.06103515625,0.3662109375,0.0
46.72999978065491,0.0556640625,0.32373046875,0.9814453125,12.81666660308838,12.81500005722046,1.6665458679199219,-0.18310546875,-0.244140625,0.0
46.73499989509583,0.0546875,0.3193359375,0.9716796875,12.821666717529304,12.820000171661375,1.6665458679288037,-0.06103515625,-0.1220703125,0.0
46.73999977111816,0.02197265625,0.32568359375,0.9765625,12.826666593551629,12.825000047683716,1.6665458679128164,0.0,0.18310546875,0.0
46.74499988555908,0.05078125,0.32373046875,0.98486328125,12.831666707992554,12.830000162124634,1.6665458679199219,0.0,-0.1220703125,0.0
46.75,0.03173828125,0.322265625,0.97314453125,12.836666822433472,12.83500003814698,1.666784286491918,0.18310546875,0.18310546875,0.0
46.75499987602234,0.0341796875,0.3291015625,0.9814453125,12.84166669845581,12.84000015258789,1.6665458679199219,0.0,0.06103515625,0.0
46.75999999046326,0.06298828125,0.31787109375,0.97509765625,12.846666812896729,12.84500002861023,1.6667842864990234,-0.18310546875,-0.48828125,0.0
46.7649998664856,0.03759765625,0.3193359375,0.97021484375,12.851666688919074,12.850000143051147,1.6665458679270273,0.0,0.18310546875,0.0
46.769999980926514,0.0244140625,0.3291015625,0.97998046875,12.856666803359984,12.855000019073486,1.666784286497247,0.06103515625,0.30517578125,0.0
46.77499985694885,0.064453125,0.32080078125,0.978515625,12.861666679382324,12.860000133514404,1.6665458679199219,-0.244140625,-0.48828125,0.0
46.77999997138977,0.0361328125,0.31982421875,0.9697265625,12.866666793823242,12.865000009536743,1.6667842864990234,0.0,0.18310546875,-0.30517578125
46.78499984741211,0.0244140625,0.33349609375,0.9873046875,12.87166666984558,12.870000123977668,1.66654586791104,0.1220703125,0.3662109375,0.0
46.78999996185303,0.0615234375,0.32080078125,0.97998046875,12.8766667842865,12.875,1.6667842865007998,-0.18310546875,-0.30517578125,0.1220703125
46.794999837875366,0.0478515625,0.3193359375,0.96728515625,12.881666660308838,12.880000114440918,1.6665458679199219,0.0,-0.06103515625,-0.18310546875
46.79999995231629,0.037109375,0.3310546875,0.98388671875,12.886666774749765,12.884999990463257,1.6667842865079052,0.1220703125,0.06103515625,0.0
46.80499982833862,0.064453125,0.3154296875,0.96923828125,12.891666650772097,12.890000104904177,1.6665458679199219,-0.244140625,-0.3662109375,0.1220703125
46.80999994277954,0.0263671875,0.3271484375,0.970703125,12.896666765213013,12.894999980926514,1.6667842864990234,0.1220703125,0.3662109375,-0.1220703125
46.81499981880188,0.04296875,0.32861328125,0.98779296875,12.901666641235352,12.900000095367432,1.6665458679199219,0.06103515625,-0.06103515625,0.18310546875
46.8199999332428,0.064453125,0.3203125,0.97998046875,12.90666675567627,12.904999971389778,1.666784286491918,-0.18310546875,-0.42724609375,0.18310546875
46.82499980926514,0.0185546875,0.330078125,0.9765625,12.911666631698608,12.910000085830688,1.6665458679199219,0.1220703125,0.48828125,-0.06103515625
46.829999923706055,0.05859375,0.32470703125,0.97998046875,12.916666746139526,12.914999961853027,1.6667842864990234,-0.244140625,-0.42724609375,0.1220703125
46.8349997997284,0.04638671875,0.3134765625,0.96728515625,12.921666622161872,12.920000076293944,1.6665458679288037,0.0,0.06103515625,-0.06103515625
46.83999991416931,0.0185546875,0.33349609375,0.9853515625,12.926666736602783,12.924999952316284,1.6667842864990234,0.1220703125,0.54931640625,-0.1220703125
46.84499979019165,0.0654296875,0.32373046875,0.98291015625,12.931666612625122,12.93000006675721,1.6665458679128164,-0.1220703125,-0.54931640625,0.18310546875
46.84999990463257,0.044921875,0.31494140625,0.96484375,12.93666672706604,12.934999942779534,1.6667842865061289,0.0,0.06103515625,0.0
46.85499978065491,0.01513671875,0.33203125,0.98388671875,12.94166660308838,12.94000005722046,1.6665458679199219,0.244140625,0.48828125,-0.06103515625
46.85999989509583,0.05419921875,0.3271484375,0.982421875,12.946666717529304,12.945000171661375,1.6665458679288037,-0.1220703125,-0.30517578125,0.1220703125
46.86499977111816,0.0556640625,0.31005859375,0.9599609375,12.951666593551629,12.950000047683716,1.6665458679128164,-0.18310546875,-0.18310546875,0.0
46.86999988555908,0.01611328125,0.3330078125,0.98828125,12.956666707992554,12.955000162124634,1.6665458679199219,0.244140625,0.54931640625,-0.1220703125
46.875,0.0654296875,0.31103515625,0.96923828125,12.961666822433472,12.96000003814698,1.666784286491918,-0.244140625,-0.3662109375,0.18310546875
46.87999987602234,0.037109375,0.3203125,0.962890625,12.96666669845581,12.96500015258789,1.6665458679199219,0.18310546875,0.48828125,-0.1220703125
46.88499999046326,0.02783203125,0.3359375,0.9873046875,12.971666812896729,12.97000002861023,1.6667842864990234,0.30517578125,0.1220703125,-0.06103515625
46.8899998664856,0.0634765625,0.30859375,0.9716796875,12.976666688919074,12.975000143051147,1.6665458679270273,-0.244140625,-0.42724609375,0.18310546875
46.894999980926514,0.03173828125,0.32177734375,0.97265625,12.981666803359984,12.980000019073486,1.666784286497247,0.0,0.54931640625,-0.244140625
46.89999985694885,0.056640625,0.32568359375,0.98291015625,12.986666679382324,12.985000133514404,1.6665458679199219,-0.3662109375,-0.42724609375,0.1220703125
46.90499997138977,0.0498046875,0.31787109375,0.9638671875,12.991666793823242,12.990000009536743,1.6667842864990234,-0.06103515625,-0.06103515625,-0.18310546875
46.90999984741211,0.01513671875,0.328125,0.98046875,12.99666666984558,12.995000123977668,1.66654586791104,0.3662109375,0.67138671875,-0.1220703125
46.91499996185303,0.0517578125,0.33056640625,0.9853515625,13.0016667842865,13.0,1.6667842865007998,0.0,-0.48828125,0.1220703125
46.919999837875366,0.05859375,0.3076171875,0.9619140625,13.006666660308838,13.005000114440918,1.6665458679199219,-0.244140625,-0.244140625,0.0
46.92499995231629,0.015625,0.33251953125,0.98583984375,13.011666774749765,13.009999990463257,1.6667842865079052,0.30517578125,0.732421875,-0.1220703125
46.92999982833862,0.0556640625,0.32763671875,0.98876953125,13.016666650772097,13.015000104904177,1.6665458679199219,-0.1220703125,-0.244140625,0.06103515625
46.93499994277954,0.05126953125,0.3134765625,0.95751953125,13.021666765213013,13.019999980926514,1.6667842864990234,-0.18310546875,-0.18310546875,0.0
46.93999981880188,0.01806640625,0.32568359375,0.9755859375,13.026666641235352,13.025000095367432,1.6665458679199219,0.18310546875,0.48828125,-0.06103515625
46.9449999332428,0.05078125,0.3291015625,0.9892578125,13.03166675567627,13.029999971389778,1.666784286491918,0.0,-0.244140625,0.18310546875
46.94999980926514,0.02978515625,0.318359375,0.9677734375,13.036666631698608,13.035000085830688,1.6665458679199219,0.1220703125,0.48828125,-0.18310546875
46.954999923706055,0.0361328125,0.33935546875,0.994140625,13.041666746139526,13.039999961853027,1.6667842864990234,0.06103515625,0.1220703125,-0.06103515625
46.9599997997284,0.06494140625,0.3125,0.96533203125,13.046666622161872,13.045000076293944,1.6665458679288037,-0.18310546875,-0.732421875,0.18310546875
46.96499991416931,0.02099609375,0.32275390625,0.97314453125,13.051666736602783,13.049999952316284,1.6667842864990234,0.06103515625,0.67138671875,-0.18310546875
46.96999979019165,0.02978515625,0.34033203125,0.99365234375,13.056666612625122,13.05500006675721,1.6665458679128164,0.06103515625,0.18310546875,-0.1220703125
46.97499990463257,0.05517578125,0.310546875,0.95849609375,13.06166672706604,13.059999942779534,1.6667842865061289,-0.18310546875,-0.244140625,0.0
46.97999978065491,0.0166015625,0.3359375,0.99072265625,13.06666660308838,13.06500005722046,1.6665458679199219,0.48828125,0.79345703125,-0.244140625
46.98499989509583,0.0615234375,0.31982421875,0.9833984375,13.071666717529304,13.070000171661375,1.6665458679288037,-0.30517578125,-0.67138671875,0.244140625
46.98999977111816,0.0458984375,0.31494140625,0.9560546875,13.076666593551629,13.075000047683716,1.6665458679128164,-0.1220703125,0.0,-0.18310546875
46.99499988555908,0.01611328125,0.3330078125,0.9873046875,13.081666707992554,13.080000162124634,1.6665458679199219,0.30517578125,0.54931640625,-0.18310546875
47.0,0.0556640625,0.32421875,0.9853515625,13.086666822433472,13.08500003814698,1.666784286491918,-0.30517578125,-0.54931640625,0.30517578125
47.00499987602234,0.04736328125,0.310546875,0.96044921875,13.09166669845581,13.09000015258789,1.6665458679199219,-0.1220703125,-0.18310546875,-0.06103515625
47.00999999046326,0.01953125,0.337890625,0.99169921875,13.096666812896729,13.09500002861023,1.6667842864990234,0.30517578125,0.732421875,-0.06103515625
47.0149998664856,0.06298828125,0.32275390625,0.97998046875,13.101666688919074,13.100000143051147,1.6665458679270273,-0.1220703125,-0.54931640625,0.18310546875
47.019999980926514,0.03857421875,0.3095703125,0.958984375,13.106666803359984,13.105000019073486,1.666784286497247,-0.1220703125,0.1220703125,0.0
47.02499985694885,0.04736328125,0.3271484375,0.98291015625,13.111666679382324,13.110000133514404,1.6665458679199219,-0.1220703125,-0.1220703125,0.0
47.02999997138977,0.06494140625,0.30859375,0.96142578125,13.116666793823242,13.115000009536743,1.6667842864990234,-0.42724609375,-0.732421875,0.18310546875
47.03499984741211,0.02197265625,0.328125,0.97802734375,13.12166666984558,13.120000123977668,1.66654586791104,0.30517578125,0.8544921875,-0.244140625
47.03999996185303,0.04736328125,0.32958984375,0.9892578125,13.1266667842865,13.125,1.6667842865007998,0.0,-0.1220703125,0.0
47.044999837875366,0.05322265625,0.31005859375,0.95654296875,13.131666660308838,13.130000114440918,1.6665458679199219,-0.18310546875,-0.244140625,0.06103515625
47.04999995231629,0.03173828125,0.33447265625,0.9912109375,13.136666774749765,13.134999990463257,1.6667842865079052,0.1220703125,0.1220703125,0.0
47.05499982833862,0.06396484375,0.314453125,0.9697265625,13.141666650772097,13.140000104904177,1.6665458679199219,-0.48828125,-0.67138671875,0.18310546875
47.05999994277954,0.037109375,0.3125,0.9677734375,13.146666765213013,13.144999980926514,1.6667842864990234,0.06103515625,0.42724609375,-0.1220703125
47.06499981880188,0.03125,0.34130859375,0.9970703125,13.151666641235352,13.150000095367432,1.6665458679199219,0.244140625,0.30517578125,-0.06103515625
47.0699999332428,0.0634765625,0.310546875,0.96337890625,13.15666675567627,13.154999971389778,1.666784286491918,-0.3662109375,-0.67138671875,0.244140625
47.07499980926514,0.0234375,0.328125,0.96728515625,13.161666631698608,13.160000085830688,1.6665458679199219,0.18310546875,0.6103515625,-0.06103515625
47.079999923706055,0.04150390625,0.33203125,0.994140625,13.166666746139526,13.164999961853027,1.6667842864990234,0.0,-0.1220703125,0.06103515625
47.0849997997284,0.05908203125,0.30908203125,0.9619140625,13.171666622161872,13.170000076293944,1.6665458679288037,-0.42724609375,-0.42724609375,0.06103515625
47.08999991416931,0.02490234375,0.32421875,0.9765625,13.176666736602783,13.174999952316284,1.6667842864990234,0.3662109375,0.48828125,-0.1220703125
47.09499979019165,0.03857421875,0.33056640625,0.9951171875,13.181666612625122,13.18000006675721,1.6665458679128164,0.0,0.1220703125,0.06103515625
47.09999990463257,0.03662109375,0.31640625,0.958984375,13.18666672706604,13.184999942779534,1.6667842865061289,0.0,0.1220703125,-0.18310546875
47.10499978065491,0.0283203125,0.34033203125,0.99169921875,13.19166660308838,13.19000005722046,1.6665458679199219,0.244140625,0.48828125,-0.06103515625
47.10999989509583,0.06591796875,0.30810546875,0.97021484375,13.196666717529304,13.195000171661375,1.6665458679288037,-0.30517578125,-0.54931640625,0.30517578125
47.11499977111816,0.0390625,0.31298828125,0.9619140625,13.201666593551629,13.200000047683716,1.6665458679128164,0.244140625,0.244140625,-0.1220703125
47.11999988555908,0.025390625,0.33837890625,0.99658203125,13.206666707992554,13.205000162124634,1.6665458679199219,0.3662109375,0.3662109375,-0.06103515625
47.125,0.06298828125,0.31103515625,0.96923828125,13.211666822433472,13.21000003814698,1.666784286491918,-0.30517578125,-0.732421875,0.244140625
47.12999987602234,0.02880859375,0.32275390625,0.96826171875,13.21666669845581,13.21500015258789,1.6665458679199219,0.30517578125,0.42724609375,-0.244140625
47.13499999046326,0.0322265625,0.3359375,0.99560546875,13.221666812896729,13.22000002861023,1.6667842864990234,0.18310546875,0.18310546875,0.0
47.1399998664856,0.0634765625,0.306640625,0.9619140625,13.226666688919074,13.225000143051147,1.6665458679270273,-0.3662109375,-0.6103515625,0.1220703125
47.144999980926514,0.0322265625,0.3203125,0.96826171875,13.231666803359984,13.230000019073486,1.666784286497247,0.1220703125,0.54931640625,-0.1220703125
47.14999985694885,0.06005859375,0.32275390625,0.98193359375,13.236666679382324,13.235000133514404,1.6665458679199219,-0.244140625,-0.6103515625,0.06103515625
47.15499997138977,0.04541015625,0.3046875,0.95166015625,13.241666793823242,13.240000009536743,1.6667842864990234,-0.06103515625,0.0,-0.06103515625
47.15999984741211,0.02197265625,0.34326171875,0.9931640625,13.24666666984558,13.245000123977668,1.66654586791104,0.244140625,0.42724609375,-0.1220703125
47.16499996185303,0.068359375,0.31103515625,0.9736328125,13.2516667842865,13.25,1.6667842865007998,-0.3662109375,-0.732421875,0.244140625
47.169999837875366,0.0478515625,0.3095703125,0.958984375,13.256666660308838,13.255000114440918,1.6665458679199219,0.18310546875,0.244140625,-0.1220703125
47.17499995231629,0.0361328125,0.2841796875,0.9443359375,13.261666774749765,13.259999990463257,1.6667842865079052,-0.54931640625,-0.9765625,-0.1220703125
47.17999982833862,0.001953125,0.33642578125,0.87841796875,13.266666650772097,13.265000104904177,1.6665458679199219,2.99072265625,-1.40380859375,-0.06103515625
47.18499994277954,0.10693359375,0.43896484375,0.9814453125,13.271666765213013,13.269999980926514,1.6667842864990234,-0.42724609375,-0.48828125,0.0
47.18999981880188,0.091796875,0.2587890625,1.0703125,13.276666641235352,13.275000095367432,1.6665458679199219,-2.99072265625,3.23486328125,0.1220703125
47.1949999332428,-0.0595703125,0.25732421875,0.97412109375,13.28166675567627,13.279999971389778,1.666784286491918,0.79345703125,-0.18310546875,-0.42724609375
47.19999980926514,0.0478515625,0.33447265625,1.005859375,13.286666631698608,13.285000085830688,1.6665458679199219,0.732421875,-1.28173828125,0.244140625
47.204999923706055,0.09619140625,0.36328125,0.9345703125,13.291666746139526,13.289999961853027,1.6667842864990234,0.0,-0.9765625,0.18310546875
47.2099997997284,0.01611328125,0.34814453125,0.9296875,13.296666622161872,13.295000076293944,1.6665458679288037,-0.3662109375,1.0986328125,0.0
47.21499991416931,0.013671875,0.28173828125,0.994140625,13.301666736602783,13.299999952316284,1.6667842864990234,-0.67138671875,-0.244140625,0.06103515625
47.21999979019165,0.0927734375,0.27880859375,0.9375,13.306666612625122,13.30500006675721,1.6665458679128164,-1.15966796875,-0.91552734375,-0.18310546875
47.22499990463257,0.0068359375,0.36669921875,1.001953125,13.31166672706604,13.309999942779534,1.6667842865061289,0.18310546875,0.244140625,-0.06103515625
47.22999978065491,0.04638671875,0.2978515625,0.994140625,13.31666660308838,13.31500005722046,1.6665458679199219,0.67138671875,-0.18310546875,-0.06103515625
47.23499989509583,0.03564453125,0.34521484375,0.97412109375,13.321666717529304,13.320000171661375,1.6665458679288037,-0.48828125,0.244140625,0.244140625
47.23999977111816,0.03662109375,0.31005859375,1.0126953125,13.326666593551629,13.325000047683716,1.6665458679128164,0.30517578125,0.48828125,0.1220703125
47.24499988555908,0.07275390625,0.33251953125,0.98388671875,13.331666707992554,13.330000162124634,1.6665458679199219,-0.06103515625,-0.42724609375,0.06103515625
47.25,0.03857421875,0.361328125,0.9970703125,13.336666822433472,13.33500003814698,1.666784286491918,0.3662109375,0.0,-0.18310546875
47.25499987602234,0.07177734375,0.296875,0.9599609375,13.34166669845581,13.34000015258789,1.6665458679199219,-0.1220703125,-0.6103515625,0.244140625
47.25999999046326,0.041015625,0.3056640625,0.9541015625,13.346666812896729,13.34500002861023,1.6667842864990234,0.244140625,0.6103515625,-0.244140625
47.2649998664856,0.0234375,0.353515625,0.9892578125,13.351666688919074,13.350000143051147,1.6665458679270273,0.42724609375,0.54931640625,-0.244140625
47.269999980926514,0.05029296875,0.32275390625,0.97265625,13.356666803359984,13.355000019073486,1.666784286497247,-0.18310546875,-0.54931640625,0.1220703125
47.27499985694885,0.0322265625,0.3173828125,0.9609375,13.361666679382324,13.360000133514404,1.6665458679199219,-0.18310546875,0.42724609375,-0.06103515625
47.27999997138977,0.0322265625,0.33642578125,1.01220703125,13.366666793823242,13.365000009536743,1.6667842864990234,0.54931640625,0.18310546875,-0.06103515625
47.28499984741211,0.05908203125,0.31005859375,0.9716796875,13.37166666984558,13.370000123977668,1.66654586791104,-0.3662109375,-0.54931640625,0.244140625
47.28999996185303,0.03369140625,0.33056640625,0.96142578125,13.3766667842865,13.375,1.6667842865007998,0.18310546875,0.30517578125,-0.18310546875
47.294999837875366,0.0546875,0.330078125,0.98193359375,13.381666660308838,13.380000114440918,1.6665458679199219,0.0,-0.18310546875,0.1220703125
47.29999995231629,0.04443359375,0.3115234375,0.95751953125,13.386666774749765,13.384999990463257,1.6667842865079052,-0.30517578125,0.244140625,-0.1220703125
47.30499982833862,0.015625,0.34033203125,0.9892578125,13.391666650772097,13.390000104904177,1.6665458679199219,0.0,0.67138671875,-0.1220703125
47.30999994277954,0.0537109375,0.31884765625,0.97119140625,13.396666765213013,13.394999980926514,1.6667842864990234,-0.67138671875,-0.6103515625,0.18310546875
47.31499981880188,0.02880859375,0.32470703125,0.96435546875,13.401666641235352,13.400000095367432,1.6665458679199219,-0.1220703125,0.1220703125,-0.06103515625
47.3199999332428,0.0302734375,0.32666015625,1.00048828125,13.40666675567627,13.404999971389778,1.666784286491918,0.0,0.0,0.0
47.32499980926514,0.0625,0.30078125,0.97314453125,13.411666631698608,13.410000085830688,1.6665458679199219,0.06103515625,0.1220703125,0.0
47.329999923706055,0.03076171875,0.341796875,0.99072265625,13.416666746139526,13.414999961853027,1.6667842864990234,0.3662109375,0.54931640625,-0.18310546875
47.3349997997284,0.0537109375,0.31494140625,0.97265625,13.421666622161872,13.420000076293944,1.6665458679288037,0.0,-0.3662109375,0.18310546875
47.33999991416931,0.0361328125,0.31787109375,0.9619140625,13.426666736602783,13.424999952316284,1.6667842864990234,0.244140625,0.1220703125,-0.06103515625
47.34499979019165,0.0205078125,0.33251953125,0.994140625,13.431666612625122,13.43000006675721,1.6665458679128164,0.42724609375,0.42724609375,-0.06103515625
47.34999990463257,0.06689453125,0.3251953125,0.9814453125,13.43666672706604,13.434999942779534,1.6667842865061289,-0.1220703125,-0.54931640625,0.1220703125
47.35499978065491,0.03857421875,0.3125,0.96728515625,13.44166660308838,13.44000005722046,1.6665458679199219,0.18310546875,0.3662109375,-0.244140625
47.35999989509583,0.0263671875,0.32470703125,0.98876953125,13.446666717529304,13.445000171661375,1.6665458679288037,0.30517578125,0.3662109375,0.06103515625
47.36499977111816,0.0693359375,0.32861328125,0.9755859375,13.451666593551629,13.450000047683716,1.6665458679128164,0.18310546875,-0.6103515625,-0.06103515625
47.36999988555908,0.03955078125,0.32275390625,0.9560546875,13.456666707992554,13.455000162124634,1.6665458679199219,0.244140625,0.06103515625,-0.244140625
47.375,0.04833984375,0.32861328125,0.982421875,13.461666822433472,13.46000003814698,1.666784286491918,-0.06103515625,0.0,0.0
47.37999987602234,0.0361328125,0.32080078125,0.97265625,13.46666669845581,13.46500015258789,1.6665458679199219,0.244140625,0.0,-0.244140625
47.38499999046326,0.0205078125,0.3359375,0.9794921875,13.471666812896729,13.47000002861023,1.6667842864990234,0.0,0.3662109375,-0.18310546875
47.3899998664856,0.0478515625,0.3212890625,0.97119140625,13.476666688919074,13.475000143051147,1.6665458679270273,-0.244140625,-0.48828125,0.18310546875
47.394999980926514,0.0400390625,0.32177734375,0.9619140625,13.481666803359984,13.480000019073486,1.666784286497247,-0.06103515625,0.0,-0.1220703125
