t,x,y,z,time_from_sync,aligned_time,time_diff_ms,gyro_x,gyro_y,gyro_z
1447.6050000190735,0.07861328125,0.00439453125,0.955078125,1430.0033334493637,1430.0,3.333449363708496,1.46484375,-4.82177734375,-1.64794921875
1447.6150000095367,0.07861328125,0.00439453125,0.955078125,1430.013333439827,1430.0099999904637,3.3334493632537487,1.46484375,-4.82177734375,-1.64794921875
1447.625,0.00537109375,-0.0986328125,1.02587890625,1430.0233334302902,1430.0199999809265,3.333449363708496,3.2958984375,3.90625,-1.708984375
1447.6349999904633,0.00537109375,-0.0986328125,1.02587890625,1430.0333334207537,1430.0299999713898,3.3334493639358698,3.2958984375,3.90625,-1.708984375
1447.6449999809265,0.08349609375,0.001953125,0.95947265625,1430.0433334112167,1430.039999961853,3.333449363708496,1.8310546875,-5.2490234375,-1.5869140625
1447.6549999713898,0.08349609375,0.001953125,0.95947265625,1430.05333340168,1430.0499999523165,3.3334493634811224,1.8310546875,-5.2490234375,-1.5869140625
1447.664999961853,-0.02001953125,-0.0966796875,0.99609375,1430.0633333921432,1430.0599999427795,3.333449363708496,3.35693359375,4.33349609375,-1.708984375
1447.6749999523165,-0.02001953125,-0.0966796875,0.99609375,1430.0733333826067,1430.0700001716614,3.333210945356768,3.35693359375,4.33349609375,-1.708984375
1447.6849999427795,0.10595703125,-0.0009765625,0.9970703125,1430.0833333730698,1430.0800001621246,3.3332109451293945,1.953125,-6.04248046875,-1.5869140625
1447.6949999332428,0.10595703125,-0.0009765625,0.9970703125,1430.093333363533,1430.090000152588,3.3332109451293945,1.953125,-6.04248046875,-1.5869140625
1447.704999923706,-0.0048828125,-0.11474609375,0.9794921875,1430.1033333539965,1430.1000001430511,3.333210945356768,3.72314453125,3.84521484375,-1.64794921875
1447.7149999141693,-0.0048828125,-0.11474609375,0.9794921875,1430.1133333444595,1430.1100001335144,3.3332109451293945,3.72314453125,3.84521484375,-1.64794921875
1447.7249999046326,0.09716796875,0.00341796875,1.11083984375,1430.1233333349228,1430.120000123978,3.333210944902021,2.44140625,-5.06591796875,-1.52587890625
1447.7349998950958,0.09716796875,0.00341796875,1.11083984375,1430.133333325386,1430.130000114441,3.3332109451293945,2.44140625,-5.06591796875,-1.52587890625
1447.744999885559,-0.02685546875,-0.1181640625,1.03564453125,1430.1433333158493,1430.1400001049042,3.3332109451293945,4.0283203125,1.8310546875,-1.708984375
1447.7549998760223,-0.02685546875,-0.1181640625,1.03564453125,1430.1533333063126,1430.1500000953674,3.3332109451293945,4.0283203125,1.8310546875,-1.708984375
1447.7649998664856,0.0966796875,0.00341796875,1.08935546875,1430.1633332967758,1430.1600000858307,3.3332109451293945,2.9296875,-3.5400390625,-1.5869140625
1447.7750000953674,0.0966796875,0.00341796875,1.08935546875,1430.1733335256577,1430.170000076294,3.333449363708496,2.9296875,-3.5400390625,-1.5869140625
1447.7850000858307,0.00390625,-0.10400390625,1.04443359375,1430.183333516121,1430.1800000667572,3.333449363708496,4.57763671875,2.197265625,-1.708984375
1447.795000076294,0.00390625,-0.10400390625,1.04443359375,1430.1933335065842,1430.1900000572205,3.333449363708496,4.57763671875,2.197265625,-1.708984375
1447.8050000667572,0.0732421875,0.00439453125,1.1943359375,1430.2033334970474,1430.2000000476835,3.3334493639358698,3.35693359375,-4.45556640625,-1.5869140625
1447.8150000572205,0.0732421875,0.00439453125,1.1943359375,1430.213333487511,1430.210000038147,3.3334493639358698,3.35693359375,-4.45556640625,-1.5869140625
1447.8250000476835,-0.00439453125,-0.10302734375,0.99609375,1430.2233334779737,1430.2200000286102,3.3334493634811224,5.126953125,2.50244140625,-1.64794921875
1447.835000038147,-0.00439453125,-0.10302734375,0.99609375,1430.2333334684372,1430.2300000190735,3.333449363708496,5.126953125,2.50244140625,-1.64794921875
1447.8450000286102,0.08447265625,0.0166015625,1.07275390625,1430.2433334589005,1430.2400000095367,3.333449363708496,3.60107421875,-3.84521484375,-1.64794921875
1447.8550000190735,0.08447265625,0.0166015625,1.07275390625,1430.2533334493637,1430.25,3.333449363708496,3.60107421875,-3.84521484375,-1.64794921875
1447.8650000095367,-0.00048828125,-0.087890625,1.0,1430.263333439827,1430.2599999904637,3.3334493632537487,5.06591796875,2.74658203125,-1.64794921875
1447.875,-0.00048828125,-0.087890625,1.0,1430.2733334302902,1430.2699999809265,3.333449363708496,5.06591796875,2.74658203125,-1.64794921875
1447.8849999904633,0.07470703125,-0.00048828125,1.06103515625,1430.2833334207537,1430.2799999713898,3.3334493639358698,3.7841796875,-5.06591796875,-1.64794921875
1447.8949999809265,0.07470703125,-0.00048828125,1.06103515625,1430.2933334112167,1430.289999961853,3.333449363708496,3.7841796875,-5.06591796875,-1.64794921875
1447.9049999713898,0.0029296875,-0.0830078125,0.943359375,1430.30333340168,1430.2999999523165,3.3334493634811224,5.06591796875,3.173828125,-1.5869140625
1447.914999961853,0.0029296875,-0.0830078125,0.943359375,1430.3133333921432,1430.3099999427795,3.333449363708496,5.06591796875,3.173828125,-1.5869140625
1447.9249999523165,0.08984375,0.01416015625,1.04052734375,1430.3233333826067,1430.3200001716614,3.333210945356768,3.47900390625,-5.31005859375,-1.64794921875
1447.9349999427795,0.08984375,0.01416015625,1.04052734375,1430.3333333730698,1430.3300001621246,3.3332109451293945,3.47900390625,-5.31005859375,-1.64794921875
1447.9449999332428,-0.009765625,-0.07861328125,0.92529296875,1430.343333363533,1430.340000152588,3.3332109451293945,5.0048828125,2.9296875,-1.5869140625
1447.954999923706,-0.009765625,-0.07861328125,0.92529296875,1430.3533333539965,1430.3500001430511,3.333210945356768,5.0048828125,2.9296875,-1.5869140625
1447.960000038147,0.0029296875,-0.095703125,0.958984375,1430.3583334684372,1430.3600001335144,1.6666650772094727,4.8828125,0.732421875,-1.64794921875
1447.9800000190735,0.08349609375,0.0009765625,1.1513671875,1430.3783334493637,1430.380000114441,1.6666650772094727,4.8828125,0.732421875,-1.64794921875
1448.0,0.08349609375,0.0009765625,1.1513671875,1430.3983334302902,1430.4000000953674,1.6666650772094727,3.84521484375,-3.41796875,-1.64794921875
1448.0199999809265,-0.0087890625,-0.083984375,0.923828125,1430.4183334112167,1430.420000076294,1.6666650772094727,3.84521484375,-3.41796875,-1.64794921875
1448.0299999713898,-0.0087890625,-0.083984375,0.923828125,1430.42833340168,1430.4300000667572,1.6666650772094727,5.18798828125,1.0986328125,-1.64794921875
1448.039999961853,0.08837890625,0.00439453125,1.24072265625,1430.4383333921432,1430.4400000572205,1.6666650772094727,5.18798828125,1.0986328125,-1.64794921875
1448.0499999523165,0.08837890625,0.00439453125,1.24072265625,1430.4483333826067,1430.4500000476835,1.6666650767547253,4.08935546875,-3.35693359375,-1.708984375
1448.0599999427795,0.0126953125,-0.080078125,0.89013671875,1430.4583333730698,1430.460000038147,1.6666650772094727,4.08935546875,-3.35693359375,-1.708984375
1448.0699999332428,0.0126953125,-0.080078125,0.89013671875,1430.468333363533,1430.4700000286102,1.6666650772094727,5.31005859375,0.244140625,-1.77001953125
1448.079999923706,0.05322265625,0.04541015625,1.19677734375,1430.4783333539965,1430.4800000190735,1.666665076982099,5.31005859375,0.244140625,-1.77001953125
1448.0899999141693,0.05322265625,0.04541015625,1.19677734375,1430.4883333444595,1430.4900000095367,1.6666650772094727,4.08935546875,-0.79345703125,-1.708984375
1448.0999999046326,0.0146484375,-0.08642578125,0.83837890625,1430.4983333349228,1430.5,1.6666650772094727,4.08935546875,-0.79345703125,-1.708984375
1448.1099998950958,0.0146484375,-0.08642578125,0.83837890625,1430.508333325386,1430.5099999904637,1.66666507766422,4.82177734375,-2.62451171875,-1.64794921875
1448.119999885559,0.076171875,0.03759765625,1.29345703125,1430.5183333158493,1430.5199999809265,1.6666650772094727,4.82177734375,-2.62451171875,-1.64794921875
1448.1299998760223,0.076171875,0.03759765625,1.29345703125,1430.5283333063126,1430.5299999713898,1.6666650772094727,4.150390625,-0.6103515625,-1.64794921875
1448.1399998664856,0.0126953125,-0.05810546875,0.69384765625,1430.5383332967758,1430.539999961853,1.6666650772094727,4.150390625,-0.6103515625,-1.64794921875
1448.1500000953674,0.0126953125,-0.05810546875,0.69384765625,1430.5483335256577,1430.5499999523165,1.6664266588577448,4.7607421875,1.15966796875,-1.64794921875
1448.1600000858307,0.0556640625,0.0078125,1.26220703125,1430.558333516121,1430.5599999427795,1.666426658630371,4.7607421875,1.15966796875,-1.64794921875
1448.170000076294,0.0556640625,0.0078125,1.26220703125,1430.5683335065842,1430.5700001716614,1.6666650772094727,3.23486328125,-4.94384765625,-1.708984375
1448.1800000667572,0.02734375,-0.04541015625,0.775390625,1430.5783334970474,1430.5800001621246,1.6666650772094727,3.23486328125,-4.94384765625,-1.708984375
1448.1900000572205,0.02734375,-0.04541015625,0.775390625,1430.588333487511,1430.590000152588,1.666665076982099,4.39453125,0.9765625,-1.5869140625
1448.2000000476835,0.056640625,0.00146484375,1.20556640625,1430.5983334779737,1430.6000001430511,1.6666650774368463,4.39453125,0.9765625,-1.5869140625
1448.210000038147,0.056640625,0.00146484375,1.20556640625,1430.6083334684372,1430.6100001335144,1.6666650772094727,3.5400390625,-1.03759765625,-1.77001953125
1448.2200000286102,0.02685546875,-0.0439453125,0.771484375,1430.6183334589005,1430.620000123978,1.6666650774368463,3.5400390625,-1.03759765625,-1.77001953125
1448.2300000190735,0.02685546875,-0.0439453125,0.771484375,1430.6283334493637,1430.630000114441,1.6666650772094727,3.41796875,-3.2958984375,-1.5869140625
1448.2400000095367,0.0615234375,-0.01953125,1.35009765625,1430.638333439827,1430.6400001049042,1.6666650772094727,3.41796875,-3.2958984375,-1.5869140625
1448.25,0.0615234375,-0.01953125,1.35009765625,1430.6483334302902,1430.6500000953674,1.6666650772094727,3.7841796875,0.732421875,-1.8310546875
1448.2599999904633,0.01416015625,0.0048828125,0.71484375,1430.6583334207537,1430.6600000858307,1.666665076982099,3.7841796875,0.732421875,-1.8310546875
1448.2699999809265,0.01416015625,0.0048828125,0.71484375,1430.6683334112167,1430.670000076294,1.6666650772094727,3.35693359375,-2.62451171875,-1.64794921875
1448.2799999713898,0.06103515625,-0.0234375,1.32470703125,1430.67833340168,1430.6800000667572,1.6666650772094727,3.35693359375,-2.62451171875,-1.64794921875
1448.289999961853,0.06103515625,-0.0234375,1.32470703125,1430.6883333921432,1430.6900000572205,1.6666650772094727,3.60107421875,0.244140625,-1.77001953125
1448.2999999523165,0.03857421875,-0.02001953125,0.8251953125,1430.6983333826067,1430.7000000476835,1.6666650767547253,3.60107421875,0.244140625,-1.77001953125
1448.3099999427795,0.03857421875,-0.02001953125,0.8251953125,1430.7083333730698,1430.710000038147,1.6666650772094727,2.685546875,-4.150390625,-1.708984375
1448.3199999332428,0.0322265625,-0.01513671875,1.2578125,1430.718333363533,1430.7200000286102,1.6666650772094727,2.685546875,-4.150390625,-1.708984375
1448.329999923706,0.0322265625,-0.01513671875,1.2578125,1430.7283333539965,1430.7300000190735,1.666665076982099,3.7841796875,4.33349609375,-1.8310546875
1448.3399999141693,0.04345703125,0.0009765625,0.8076171875,1430.7383333444595,1430.7400000095367,1.6666650772094727,3.7841796875,4.33349609375,-1.8310546875
1448.3499999046326,0.04345703125,0.0009765625,0.8076171875,1430.7483333349228,1430.75,1.6666650772094727,1.89208984375,-7.87353515625,-1.64794921875
1448.3599998950958,0.0322265625,-0.04443359375,1.25634765625,1430.758333325386,1430.7599999904637,1.66666507766422,1.89208984375,-7.87353515625,-1.64794921875
1448.369999885559,0.0322265625,-0.04443359375,1.25634765625,1430.7683333158493,1430.7699999809265,1.6666650772094727,3.72314453125,6.2255859375,-1.77001953125
1448.3799998760223,0.06201171875,0.03466796875,0.75732421875,1430.7783333063126,1430.7799999713898,1.6666650772094727,3.72314453125,6.2255859375,-1.77001953125
1448.3899998664856,0.06201171875,0.03466796875,0.75732421875,1430.7883332967758,1430.789999961853,1.6666650772094727,1.5869140625,-7.62939453125,-1.708984375
1448.4000000953674,0.017578125,-0.02783203125,1.203125,1430.7983335256577,1430.7999999523165,1.6664266588577448,1.5869140625,-7.62939453125,-1.708984375
1448.4100000858307,0.017578125,-0.02783203125,1.203125,1430.808333516121,1430.8099999427795,1.666426658630371,3.2958984375,5.18798828125,-1.8310546875
1448.420000076294,0.0751953125,0.01904296875,0.888671875,1430.8183335065842,1430.8200001716614,1.6666650772094727,3.2958984375,5.18798828125,-1.8310546875
1448.4300000667572,0.0751953125,0.01904296875,0.888671875,1430.8283334970474,1430.8300001621246,1.6666650772094727,1.220703125,-7.62939453125,-1.708984375
1448.4400000572205,-0.009765625,-0.048828125,1.0634765625,1430.838333487511,1430.840000152588,1.666665076982099,1.220703125,-7.62939453125,-1.708984375
1448.4500000476835,-0.009765625,-0.048828125,1.0634765625,1430.8483334779737,1430.8500001430511,1.6666650774368463,3.0517578125,5.92041015625,-1.77001953125
1448.460000038147,0.08984375,0.03857421875,0.953125,1430.8583334684372,1430.8600001335144,1.6666650772094727,3.0517578125,5.92041015625,-1.77001953125
1448.4700000286102,0.08984375,0.03857421875,0.953125,1430.8683334589005,1430.870000123978,1.6666650774368463,0.79345703125,-8.30078125,-1.77001953125
1448.4800000190735,0.00634765625,-0.04248046875,1.04833984375,1430.8783334493637,1430.880000114441,1.6666650772094727,0.79345703125,-8.30078125,-1.77001953125
1448.4900000095367,0.00634765625,-0.04248046875,1.04833984375,1430.888333439827,1430.8900001049042,1.6666650772094727,2.74658203125,6.53076171875,-1.8310546875
1448.5,0.0703125,0.05615234375,0.9873046875,1430.8983334302902,1430.9000000953674,1.6666650772094727,2.74658203125,6.53076171875,-1.8310546875
1448.5099999904633,0.0703125,0.05615234375,0.9873046875,1430.9083334207537,1430.9100000858307,1.666665076982099,0.30517578125,-7.32421875,-1.8310546875
1448.5199999809265,0.0009765625,-0.072265625,1.0,1430.9183334112167,1430.920000076294,1.6666650772094727,0.30517578125,-7.32421875,-1.8310546875
1448.5299999713898,0.0009765625,-0.072265625,1.0,1430.92833340168,1430.9300000667572,1.6666650772094727,2.38037109375,3.60107421875,-1.77001953125
1448.539999961853,0.078125,0.06640625,1.01025390625,1430.9383333921432,1430.9400000572205,1.6666650772094727,2.38037109375,3.60107421875,-1.77001953125
1448.5499999523165,0.078125,0.06640625,1.01025390625,1430.9483333826067,1430.9500000476835,1.6666650767547253,0.244140625,-3.96728515625,-1.77001953125
1448.5599999427795,-0.01416015625,-0.0712890625,0.8671875,1430.9583333730698,1430.960000038147,1.6666650772094727,0.244140625,-3.96728515625,-1.77001953125
1448.5699999332428,-0.01416015625,-0.0712890625,0.8671875,1430.968333363533,1430.9700000286102,1.6666650772094727,1.77001953125,3.41796875,-1.8310546875
1448.579999923706,0.08984375,0.06640625,1.08837890625,1430.9783333539965,1430.9800000190735,1.666665076982099,1.77001953125,3.41796875,-1.8310546875
1448.5899999141693,0.08984375,0.06640625,1.08837890625,1430.9883333444595,1430.9900000095367,1.6666650772094727,-0.42724609375,-7.32421875,-1.8310546875
1448.5999999046326,-0.00146484375,-0.0673828125,0.8232421875,1430.9983333349228,1431.0,1.6666650772094727,-0.42724609375,-7.32421875,-1.8310546875
1448.6099998950958,-0.00146484375,-0.0673828125,0.8232421875,1431.008333325386,1431.0099999904637,1.66666507766422,1.77001953125,6.7138671875,-1.8310546875
1448.619999885559,0.0673828125,0.06591796875,1.0966796875,1431.0183333158493,1431.0199999809265,1.6666650772094727,1.77001953125,6.7138671875,-1.8310546875
1448.6299998760223,0.0673828125,0.06591796875,1.0966796875,1431.0283333063126,1431.0299999713898,1.6666650772094727,-0.91552734375,-7.50732421875,-1.8310546875
1448.6399998664856,0.0087890625,-0.0634765625,0.86572265625,1431.0383332967758,1431.039999961853,1.6666650772094727,-0.91552734375,-7.50732421875,-1.8310546875
1448.6500000953674,0.0087890625,-0.0634765625,0.86572265625,1431.0483335256577,1431.0499999523165,1.6664266588577448,0.8544921875,2.9296875,-1.8310546875
1448.6600000858307,0.0712890625,0.064453125,1.12646484375,1431.058333516121,1431.0599999427795,1.666426658630371,0.8544921875,2.9296875,-1.8310546875
1448.670000076294,0.0712890625,0.064453125,1.12646484375,1431.0683335065842,1431.0700001716614,1.6666650772094727,-0.54931640625,-2.62451171875,-1.77001953125
1448.6800000667572,0.00634765625,-0.05029296875,0.81982421875,1431.0783334970474,1431.0800001621246,1.6666650772094727,-0.54931640625,-2.62451171875,-1.77001953125
1448.6900000572205,0.00634765625,-0.05029296875,0.81982421875,1431.088333487511,1431.090000152588,1.666665076982099,0.3662109375,0.91552734375,-1.77001953125
1448.7000000476835,0.08203125,0.0615234375,1.20166015625,1431.0983334779737,1431.1000001430511,1.6666650774368463,0.3662109375,0.91552734375,-1.77001953125
1448.710000038147,0.08203125,0.0615234375,1.20166015625,1431.1083334684372,1431.1100001335144,1.6666650772094727,-0.91552734375,-3.5400390625,-1.8310546875
1448.7200000286102,-0.001953125,-0.03369140625,0.7744140625,1431.1183334589005,1431.120000123978,1.6666650774368463,-0.91552734375,-3.5400390625,-1.8310546875
1448.7300000190735,-0.001953125,-0.03369140625,0.7744140625,1431.1283334493637,1431.130000114441,1.6666650772094727,0.18310546875,3.2958984375,-1.708984375
1448.7400000095367,0.06689453125,0.04248046875,1.19482421875,1431.138333439827,1431.1400001049042,1.6666650772094727,0.18310546875,3.2958984375,-1.708984375
1448.75,0.06689453125,0.04248046875,1.19482421875,1431.1483334302902,1431.1500000953674,1.6666650772094727,-1.40380859375,-4.2724609375,-1.77001953125
1448.7599999904633,0.01318359375,-0.02880859375,0.85595703125,1431.1583334207537,1431.1600000858307,1.666665076982099,-1.40380859375,-4.2724609375,-1.77001953125
1448.7699999809265,0.01318359375,-0.02880859375,0.85595703125,1431.1683334112167,1431.170000076294,1.6666650772094727,-0.42724609375,0.54931640625,-1.708984375
1448.7799999713898,0.06396484375,0.0322265625,1.1455078125,1431.17833340168,1431.1800000667572,1.6666650772094727,-0.42724609375,0.54931640625,-1.708984375
1448.789999961853,0.06396484375,0.0322265625,1.1455078125,1431.1883333921432,1431.1900000572205,1.6666650772094727,-1.0986328125,1.40380859375,-1.77001953125
1448.7999999523165,0.0185546875,-0.01318359375,0.751953125,1431.1983333826067,1431.2000000476835,1.6666650767547253,-1.0986328125,1.40380859375,-1.77001953125
1448.8099999427795,0.0185546875,-0.01318359375,0.751953125,1431.2083333730698,1431.210000038147,1.6666650772094727,-1.40380859375,-4.21142578125,-1.708984375
1448.8199999332428,0.060546875,0.02197265625,1.2724609375,1431.218333363533,1431.2200000286102,1.6666650772094727,-1.40380859375,-4.21142578125,-1.708984375
1448.829999923706,0.060546875,0.02197265625,1.2724609375,1431.2283333539965,1431.2300000190735,1.666665076982099,-1.28173828125,2.44140625,-1.77001953125
1448.8399999141693,0.025390625,-0.00048828125,0.76806640625,1431.2383333444595,1431.2400000095367,1.6666650772094727,-1.28173828125,2.44140625,-1.77001953125
1448.8499999046326,0.025390625,-0.00048828125,0.76806640625,1431.2483333349228,1431.25,1.6666650772094727,-1.46484375,-2.5634765625,-1.64794921875
1448.8599998950958,0.0439453125,0.02099609375,1.23828125,1431.258333325386,1431.2599999904637,1.66666507766422,-1.46484375,-2.5634765625,-1.64794921875
1448.869999885559,0.0439453125,0.02099609375,1.23828125,1431.2683333158493,1431.2699999809265,1.6666650772094727,-1.64794921875,1.0986328125,-1.77001953125
1448.8799998760223,0.04345703125,-0.015625,0.84765625,1431.2783333063126,1431.2799999713898,1.6666650772094727,-1.64794921875,1.0986328125,-1.77001953125
1448.8899998664856,0.04345703125,-0.015625,0.84765625,1431.2883332967758,1431.289999961853,1.6666650772094727,-1.89208984375,-3.41796875,-1.64794921875
1448.9000000953674,0.02783203125,0.009765625,1.20703125,1431.2983335256577,1431.2999999523165,1.6664266588577448,-1.89208984375,-3.41796875,-1.64794921875
1448.9100000858307,0.02783203125,0.009765625,1.20703125,1431.308333516121,1431.3099999427795,1.666426658630371,-1.40380859375,3.96728515625,-1.708984375
1448.920000076294,0.048828125,-0.00390625,0.8583984375,1431.3183335065842,1431.3200001716614,1.6666650772094727,-1.40380859375,3.96728515625,-1.708984375
1448.9300000667572,0.048828125,-0.00390625,0.8583984375,1431.3283334970474,1431.3300001621246,1.6666650772094727,-2.50244140625,-5.859375,-1.708984375
1448.9400000572205,0.03466796875,-0.0283203125,1.248046875,1431.338333487511,1431.340000152588,1.666665076982099,-2.50244140625,-5.859375,-1.708984375
1448.9500000476835,0.03466796875,-0.0283203125,1.248046875,1431.3483334779737,1431.3500001430511,1.6666650774368463,-1.46484375,3.96728515625,-1.77001953125
1448.960000038147,0.05126953125,0.03125,0.8720703125,1431.3583334684372,1431.3600001335144,1.6666650772094727,-1.46484375,3.96728515625,-1.77001953125
1448.9700000286102,0.017578125,-0.02734375,1.11279296875,1431.3683334589005,1431.370000123978,1.6666650774368463,-2.3193359375,-2.99072265625,-1.64794921875
1448.9849998950958,0.017578125,-0.02734375,1.11279296875,1431.383333325386,1431.380000114441,3.3332109451293945,-2.3193359375,-2.99072265625,-1.64794921875
1448.994999885559,0.06201171875,0.029296875,0.91650390625,1431.3933333158493,1431.3900001049042,3.3332109451293945,-1.5869140625,2.197265625,-1.708984375
1449.0049998760223,0.06201171875,0.029296875,0.91650390625,1431.4033333063126,1431.4000000953674,3.3332109451293945,-1.5869140625,2.197265625,-1.708984375
1449.0149998664856,0.00830078125,-0.03173828125,1.01513671875,1431.4133332967758,1431.4100000858307,3.3332109451293945,-2.50244140625,-3.23486328125,-1.5869140625
1449.0250000953674,0.00830078125,-0.03173828125,1.01513671875,1431.4233335256577,1431.420000076294,3.333449363708496,-2.50244140625,-3.23486328125,-1.5869140625
1449.0350000858307,0.0693359375,0.04638671875,0.91259765625,1431.433333516121,1431.4300000667572,3.333449363708496,-1.3427734375,4.150390625,-1.64794921875
1449.045000076294,0.0693359375,0.04638671875,0.91259765625,1431.4433335065842,1431.4400000572205,3.333449363708496,-1.3427734375,4.150390625,-1.64794921875
1449.0550000667572,0.00634765625,-0.05419921875,1.01318359375,1431.4533334970474,1431.4500000476835,3.3334493639358698,-2.86865234375,-5.67626953125,-1.5869140625
1449.0650000572205,0.00634765625,-0.05419921875,1.01318359375,1431.463333487511,1431.460000038147,3.3334493639358698,-2.86865234375,-5.67626953125,-1.5869140625
1449.0750000476835,0.060546875,0.0654296875,0.93994140625,1431.4733334779737,1431.4700000286102,3.3334493634811224,-1.40380859375,4.638671875,-1.64794921875
1449.085000038147,0.060546875,0.0654296875,0.93994140625,1431.4833334684372,1431.4800000190735,3.333449363708496,-1.40380859375,4.638671875,-1.64794921875
1449.0950000286102,0.01513671875,-0.07080078125,0.990234375,1431.4933334589005,1431.4900000095367,3.333449363708496,-3.0517578125,-4.39453125,-1.52587890625
1449.1050000190735,0.01513671875,-0.07080078125,0.990234375,1431.5033334493637,1431.5,3.333449363708496,-3.0517578125,-4.39453125,-1.52587890625
1449.1150000095367,0.072265625,0.0576171875,1.06201171875,1431.513333439827,1431.5099999904637,3.3334493632537487,-1.708984375,2.62451171875,-1.5869140625
1449.125,0.072265625,0.0576171875,1.06201171875,1431.5233334302902,1431.5199999809265,3.333449363708496,-1.708984375,2.62451171875,-1.5869140625
1449.1349999904633,0.0009765625,-0.06396484375,0.9365234375,1431.5333334207537,1431.5299999713898,3.3334493639358698,-3.173828125,-3.90625,-1.46484375
1449.1449999809265,0.0009765625,-0.06396484375,0.9365234375,1431.5433334112167,1431.539999961853,3.333449363708496,-3.173828125,-3.90625,-1.46484375
1449.1549999713898,0.07861328125,0.06005859375,1.1640625,1431.55333340168,1431.5499999523165,3.3334493634811224,-1.5869140625,4.33349609375,-1.5869140625
1449.164999961853,0.07861328125,0.06005859375,1.1640625,1431.5633333921432,1431.5599999427795,3.333449363708496,-1.5869140625,4.33349609375,-1.5869140625
1449.1749999523165,0.0107421875,-0.05029296875,0.93701171875,1431.5733333826067,1431.5700001716614,3.333210945356768,-3.41796875,-6.591796875,-1.52587890625
1449.1849999427795,0.0107421875,-0.05029296875,0.93701171875,1431.5833333730698,1431.5800001621246,3.3332109451293945,-3.41796875,-6.591796875,-1.52587890625
1449.1949999332428,0.064453125,0.0439453125,1.08837890625,1431.593333363533,1431.590000152588,3.3332109451293945,-1.3427734375,6.7138671875,-1.52587890625
1449.204999923706,0.064453125,0.0439453125,1.08837890625,1431.6033333539965,1431.6000001430511,3.333210945356768,-1.3427734375,6.7138671875,-1.52587890625
1449.2149999141693,0.01171875,-0.0654296875,0.927734375,1431.6133333444595,1431.6100001335144,3.3332109451293945,-3.35693359375,-5.615234375,-1.46484375
1449.2249999046326,0.01171875,-0.0654296875,0.927734375,1431.6233333349228,1431.620000123978,3.333210944902021,-3.35693359375,-5.615234375,-1.46484375
1449.2349998950958,0.06298828125,0.03369140625,1.087890625,1431.633333325386,1431.630000114441,3.3332109451293945,-1.5869140625,3.5400390625,-1.46484375
1449.244999885559,0.06298828125,0.03369140625,1.087890625,1431.6433333158493,1431.6400001049042,3.3332109451293945,-1.5869140625,3.5400390625,-1.46484375
1449.2549998760223,0.0068359375,-0.03759765625,0.7841796875,1431.6533333063126,1431.6500000953674,3.3332109451293945,-2.74658203125,-1.220703125,-1.46484375
1449.2649998664856,0.0068359375,-0.03759765625,0.7841796875,1431.6633332967758,1431.6600000858307,3.3332109451293945,-2.74658203125,-1.220703125,-1.46484375
1449.2750000953674,0.07373046875,0.013671875,1.158203125,1431.6733335256577,1431.670000076294,3.333449363708496,-1.953125,0.9765625,-1.46484375
1449.2850000858307,0.07373046875,0.013671875,1.158203125,1431.683333516121,1431.6800000667572,3.333449363708496,-1.953125,0.9765625,-1.46484375
1449.295000076294,0.0146484375,-0.03662109375,0.79638671875,1431.6933335065842,1431.6900000572205,3.333449363708496,-2.74658203125,-1.89208984375,-1.40380859375
1449.3050000667572,0.0146484375,-0.03662109375,0.79638671875,1431.7033334970474,1431.7000000476835,3.3334493639358698,-2.74658203125,-1.89208984375,-1.40380859375
1449.3150000572205,0.05078125,0.03076171875,1.0869140625,1431.713333487511,1431.710000038147,3.3334493639358698,-1.64794921875,2.86865234375,-1.3427734375
1449.3250000476835,0.05078125,0.03076171875,1.0869140625,1431.7233334779737,1431.7200000286102,3.3334493634811224,-1.64794921875,2.86865234375,-1.3427734375
1449.335000038147,0.029296875,-0.0361328125,0.81201171875,1431.7333334684372,1431.7300000190735,3.333449363708496,-2.62451171875,-2.01416015625,-1.46484375
1449.3450000286102,0.029296875,-0.0361328125,0.81201171875,1431.7433334589005,1431.7400000095367,3.333449363708496,-2.62451171875,-2.01416015625,-1.46484375
1449.3550000190735,0.04541015625,0.015625,1.18212890625,1431.7533334493637,1431.75,3.333449363708496,-1.953125,-0.8544921875,-1.3427734375
1449.3650000095367,0.04541015625,0.015625,1.18212890625,1431.763333439827,1431.7599999904637,3.3334493632537487,-1.953125,-0.8544921875,-1.3427734375
1449.375,0.02392578125,-0.03955078125,0.76953125,1431.7733334302902,1431.7699999809265,3.333449363708496,-1.953125,2.62451171875,-1.3427734375
1449.3849999904633,0.02392578125,-0.03955078125,0.76953125,1431.7833334207537,1431.7799999713898,3.3334493639358698,-1.953125,2.62451171875,-1.3427734375
1449.3949999809265,0.05712890625,0.00439453125,1.2568359375,1431.7933334112167,1431.789999961853,3.333449363708496,-2.3193359375,-3.11279296875,-1.3427734375
1449.4049999713898,0.05712890625,0.00439453125,1.2568359375,1431.80333340168,1431.7999999523165,3.3334493634811224,-2.3193359375,-3.11279296875,-1.3427734375
1449.414999961853,0.033203125,-0.02734375,0.7568359375,1431.8133333921432,1431.8099999427795,3.333449363708496,-2.01416015625,2.44140625,-1.3427734375
1449.4249999523165,0.033203125,-0.02734375,0.7568359375,1431.8233333826067,1431.8200001716614,3.333210945356768,-2.01416015625,2.44140625,-1.3427734375
1449.4349999427795,0.03759765625,0.01123046875,1.21142578125,1431.8333333730698,1431.8300001621246,3.3332109451293945,-2.01416015625,-0.79345703125,-1.28173828125
1449.4449999332428,0.03759765625,0.01123046875,1.21142578125,1431.843333363533,1431.840000152588,3.3332109451293945,-2.01416015625,-0.79345703125,-1.28173828125
1449.454999923706,0.04052734375,-0.03125,0.85888671875,1431.8533333539965,1431.8500001430511,3.333210945356768,-2.0751953125,0.79345703125,-1.3427734375
1449.4649999141693,0.04052734375,-0.03125,0.85888671875,1431.8633333444595,1431.8600001335144,3.3332109451293945,-2.0751953125,0.79345703125,-1.3427734375
1449.4749999046326,0.041015625,-0.01318359375,1.1806640625,1431.8733333349228,1431.870000123978,3.333210944902021,-2.25830078125,-1.953125,-1.28173828125
1449.4849998950958,0.041015625,-0.01318359375,1.1806640625,1431.883333325386,1431.880000114441,3.3332109451293945,-2.25830078125,-1.953125,-1.28173828125
1449.494999885559,0.041015625,-0.00048828125,0.83544921875,1431.8933333158493,1431.8900001049042,3.3332109451293945,-1.46484375,4.33349609375,-1.220703125
1449.5049998760223,0.041015625,-0.00048828125,0.83544921875,1431.9033333063126,1431.9000000953674,3.3332109451293945,-1.46484375,4.33349609375,-1.220703125
1449.5149998664856,0.03564453125,-0.029296875,1.17822265625,1431.9133332967758,1431.9100000858307,3.3332109451293945,-2.3193359375,-4.2724609375,-1.220703125
1449.5250000953674,0.03564453125,-0.029296875,1.17822265625,1431.9233335256577,1431.920000076294,3.333449363708496,-2.3193359375,-4.2724609375,-1.220703125
1449.5350000858307,0.041015625,-0.00341796875,0.861328125,1431.933333516121,1431.9300000667572,3.333449363708496,-1.28173828125,4.39453125,-1.220703125
1449.545000076294,0.041015625,-0.00341796875,0.861328125,1431.9433335065842,1431.9400000572205,3.333449363708496,-1.28173828125,4.39453125,-1.220703125
1449.5550000667572,0.03466796875,-0.0341796875,1.0771484375,1431.9533334970474,1431.9500000476835,3.3334493639358698,-2.197265625,-2.86865234375,-1.15966796875
1449.5650000572205,0.03466796875,-0.0341796875,1.0771484375,1431.963333487511,1431.960000038147,3.3334493639358698,-2.197265625,-2.86865234375,-1.15966796875
1449.5750000476835,0.0537109375,0.01220703125,0.92041015625,1431.9733334779737,1431.9700000286102,3.3334493634811224,-1.0986328125,3.84521484375,-1.220703125
1449.585000038147,0.0537109375,0.01220703125,0.92041015625,1431.9833334684372,1431.9800000190735,3.333449363708496,-1.0986328125,3.84521484375,-1.220703125
1449.5950000286102,0.01220703125,-0.05419921875,1.02587890625,1431.9933334589005,1431.9900000095367,3.333449363708496,-2.197265625,-3.47900390625,-1.15966796875
1449.6050000190735,0.01220703125,-0.05419921875,1.02587890625,1432.0033334493637,1432.0,3.333449363708496,-2.197265625,-3.47900390625,-1.15966796875
1449.6150000095367,0.05419921875,0.00830078125,0.95703125,1432.013333439827,1432.0099999904637,3.3334493632537487,-0.79345703125,5.4931640625,-1.15966796875
1449.625,0.05419921875,0.00830078125,0.95703125,1432.0233334302902,1432.0199999809265,3.333449363708496,-0.79345703125,5.4931640625,-1.15966796875
1449.6349999904633,0.02099609375,-0.05126953125,0.9892578125,1432.0333334207537,1432.0299999713898,3.3334493639358698,-2.38037109375,-5.37109375,-1.0986328125
1449.6449999809265,0.02099609375,-0.05126953125,0.9892578125,1432.0433334112167,1432.039999961853,3.333449363708496,-2.38037109375,-5.37109375,-1.0986328125
1449.6549999713898,0.05078125,0.0107421875,0.9482421875,1432.05333340168,1432.0499999523165,3.3334493634811224,-0.42724609375,6.28662109375,-1.15966796875
1449.664999961853,0.05078125,0.0107421875,0.9482421875,1432.0633333921432,1432.0599999427795,3.333449363708496,-0.42724609375,6.28662109375,-1.15966796875
1449.6749999523165,0.01513671875,-0.0703125,1.02294921875,1432.0733333826067,1432.0700001716614,3.333210945356768,-2.25830078125,-4.5166015625,-1.0986328125
1449.6849999427795,0.01513671875,-0.0703125,1.02294921875,1432.0833333730698,1432.0800001621246,3.3332109451293945,-2.25830078125,-4.5166015625,-1.0986328125
1449.6949999332428,0.06201171875,0.01708984375,1.02685546875,1432.093333363533,1432.090000152588,3.3332109451293945,-0.6103515625,4.150390625,-1.0986328125
1449.704999923706,0.06201171875,0.01708984375,1.02685546875,1432.1033333539965,1432.1000001430511,3.333210945356768,-0.6103515625,4.150390625,-1.0986328125
1449.7149999141693,0.009765625,-0.05810546875,0.9638671875,1432.1133333444595,1432.1100001335144,3.3332109451293945,-1.77001953125,-2.8076171875,-1.0986328125
1449.7249999046326,0.009765625,-0.05810546875,0.9638671875,1432.1233333349228,1432.120000123978,3.333210944902021,-1.77001953125,-2.8076171875,-1.0986328125
1449.7349998950958,0.06591796875,-0.001953125,1.080078125,1432.133333325386,1432.130000114441,3.3332109451293945,-0.54931640625,4.33349609375,-1.03759765625
1449.744999885559,0.06591796875,-0.001953125,1.080078125,1432.1433333158493,1432.1400001049042,3.3332109451293945,-0.54931640625,4.33349609375,-1.03759765625
1449.7549998760223,0.00830078125,-0.0625,0.98388671875,1432.1533333063126,1432.1500000953674,3.3332109451293945,-1.8310546875,-3.90625,-1.0986328125
1449.7649998664856,0.00830078125,-0.0625,0.98388671875,1432.1633332967758,1432.1600000858307,3.3332109451293945,-1.8310546875,-3.90625,-1.0986328125
1449.7750000953674,0.056640625,0.02734375,1.087890625,1432.1733335256577,1432.170000076294,3.333449363708496,-0.1220703125,4.8828125,-1.03759765625
1449.7850000858307,0.056640625,0.02734375,1.087890625,1432.183333516121,1432.1800000667572,3.333449363708496,-0.1220703125,4.8828125,-1.03759765625
1449.795000076294,0.013671875,-0.0810546875,0.943359375,1432.1933335065842,1432.1900000572205,3.333449363708496,-1.40380859375,-2.25830078125,-1.0986328125
1449.8050000667572,0.013671875,-0.0810546875,0.943359375,1432.2033334970474,1432.2000000476835,3.3334493639358698,-1.40380859375,-2.25830078125,-1.0986328125
1449.8150000572205,0.0625,0.01611328125,1.1181640625,1432.213333487511,1432.210000038147,3.3334493639358698,-0.30517578125,2.0751953125,-1.03759765625
1449.8250000476835,0.0625,0.01611328125,1.1181640625,1432.2233334779737,1432.2200000286102,3.3334493634811224,-0.30517578125,2.0751953125,-1.03759765625
1449.835000038147,0.00634765625,-0.05859375,0.85205078125,1432.2333334684372,1432.2300000190735,3.333449363708496,-0.91552734375,0.42724609375,-1.03759765625
1449.8450000286102,0.00634765625,-0.05859375,0.85205078125,1432.2433334589005,1432.2400000095367,3.333449363708496,-0.91552734375,0.42724609375,-1.03759765625
1449.8550000190735,0.0634765625,0.01904296875,1.16748046875,1432.2533334493637,1432.25,3.333449363708496,-0.244140625,1.953125,-1.03759765625
1449.8650000095367,0.0634765625,0.01904296875,1.16748046875,1432.263333439827,1432.2599999904637,3.3334493632537487,-0.244140625,1.953125,-1.03759765625
1449.875,0.01611328125,-0.08642578125,0.8173828125,1432.2733334302902,1432.2699999809265,3.333449363708496,-1.0986328125,-1.28173828125,-1.0986328125
1449.8849999904633,0.01611328125,-0.08642578125,0.8173828125,1432.2833334207537,1432.2799999713898,3.3334493639358698,-1.0986328125,-1.28173828125,-1.0986328125
1449.8949999809265,0.046875,0.0234375,1.17431640625,1432.2933334112167,1432.289999961853,3.333449363708496,-0.1220703125,2.8076171875,-1.03759765625
1449.9049999713898,0.046875,0.0234375,1.17431640625,1432.30333340168,1432.2999999523165,3.3334493634811224,-0.1220703125,2.8076171875,-1.03759765625
1449.914999961853,0.02099609375,-0.06103515625,0.8408203125,1432.3133333921432,1432.3099999427795,3.333449363708496,-0.91552734375,-0.1220703125,-1.03759765625
1449.9249999523165,0.02099609375,-0.06103515625,0.8408203125,1432.3233333826067,1432.3200001716614,3.333210945356768,-0.91552734375,-0.1220703125,-1.03759765625
1449.9349999427795,0.05712890625,0.0126953125,1.2080078125,1432.3333333730698,1432.3300001621246,3.3332109451293945,-0.244140625,0.48828125,-0.9765625
1449.9449999332428,0.05712890625,0.0126953125,1.2080078125,1432.343333363533,1432.340000152588,3.3332109451293945,-0.244140625,0.48828125,-0.9765625
1449.954999923706,0.01171875,-0.0673828125,0.76953125,1432.3533333539965,1432.3500001430511,3.333210945356768,-0.30517578125,1.77001953125,-0.9765625
1449.9649999141693,0.01171875,-0.0673828125,0.76953125,1432.3633333444595,1432.3600001335144,3.3332109451293945,-0.30517578125,1.77001953125,-0.9765625
1449.9700000286102,0.04150390625,-0.01708984375,1.21728515625,1432.3683334589005,1432.370000123978,1.6666650774368463,-0.06103515625,0.244140625,-0.9765625
1449.9900000095367,0.04150390625,-0.01708984375,1.21728515625,1432.388333439827,1432.3900001049042,1.6666650772094727,-0.06103515625,0.244140625,-0.9765625
1450.0,0.021484375,-0.04833984375,0.80517578125,1432.3983334302902,1432.4000000953674,1.6666650772094727,-0.30517578125,1.0986328125,-1.03759765625
1450.0099999904633,0.021484375,-0.04833984375,0.80517578125,1432.4083334207537,1432.4100000858307,1.666665076982099,-0.30517578125,1.0986328125,-1.03759765625
1450.0199999809265,0.04541015625,-0.01708984375,1.146484375,1432.4183334112167,1432.420000076294,1.6666650772094727,-0.30517578125,1.0986328125,-1.03759765625
1450.0299999713898,0.04541015625,-0.01708984375,1.146484375,1432.42833340168,1432.4300000667572,1.6666650772094727,0.06103515625,1.28173828125,-0.91552734375
1450.039999961853,0.033203125,-0.05810546875,0.87890625,1432.4383333921432,1432.4400000572205,1.6666650772094727,0.06103515625,1.28173828125,-0.91552734375
1450.0499999523165,0.033203125,-0.05810546875,0.87890625,1432.4483333826067,1432.4500000476835,1.6666650767547253,-0.1220703125,1.28173828125,-1.03759765625
1450.0599999427795,0.03759765625,-0.03369140625,1.16552734375,1432.4583333730698,1432.460000038147,1.6666650772094727,-0.1220703125,1.28173828125,-1.03759765625
1450.0699999332428,0.03759765625,-0.03369140625,1.16552734375,1432.468333363533,1432.4700000286102,1.6666650772094727,-0.06103515625,-1.3427734375,-1.03759765625
1450.079999923706,0.03125,-0.037109375,0.845703125,1432.4783333539965,1432.4800000190735,1.666665076982099,-0.06103515625,-1.3427734375,-1.03759765625
1450.0899999141693,0.03125,-0.037109375,0.845703125,1432.4883333444595,1432.4900000095367,1.6666650772094727,0.3662109375,4.39453125,-1.03759765625
1450.0999999046326,0.0380859375,-0.04736328125,1.21044921875,1432.4983333349228,1432.5,1.6666650772094727,0.3662109375,4.39453125,-1.03759765625
1450.1099998950958,0.0380859375,-0.04736328125,1.21044921875,1432.508333325386,1432.5099999904637,1.66666507766422,-0.18310546875,-2.38037109375,-1.03759765625
1450.119999885559,0.0419921875,-0.005859375,0.87158203125,1432.5183333158493,1432.5199999809265,1.6666650772094727,-0.18310546875,-2.38037109375,-1.03759765625
1450.1299998760223,0.0419921875,-0.005859375,0.87158203125,1432.5283333063126,1432.5299999713898,1.6666650772094727,0.732421875,4.21142578125,-1.03759765625
1450.1399998664856,0.01953125,-0.0458984375,1.130859375,1432.5383332967758,1432.539999961853,1.6666650772094727,0.732421875,4.21142578125,-1.03759765625
1450.1500000953674,0.01953125,-0.0458984375,1.130859375,1432.5483335256577,1432.5499999523165,1.6664266588577448,0.1220703125,-1.77001953125,-0.9765625
1450.1600000858307,0.05078125,-0.0263671875,0.9443359375,1432.558333516121,1432.5599999427795,1.666426658630371,0.1220703125,-1.77001953125,-0.9765625
1450.170000076294,0.05078125,-0.0263671875,0.9443359375,1432.5683335065842,1432.5700001716614,1.6666650772094727,0.8544921875,4.2724609375,-1.03759765625
1450.1800000667572,0.02099609375,-0.041015625,1.08056640625,1432.5783334970474,1432.5800001621246,1.6666650772094727,0.8544921875,4.2724609375,-1.03759765625
1450.1900000572205,0.02099609375,-0.041015625,1.08056640625,1432.588333487511,1432.590000152588,1.666665076982099,-0.18310546875,-3.0517578125,-1.03759765625
1450.2000000476835,0.04638671875,-0.00244140625,0.89111328125,1432.5983334779737,1432.6000001430511,1.6666650774368463,-0.18310546875,-3.0517578125,-1.03759765625
1450.210000038147,0.04638671875,-0.00244140625,0.89111328125,1432.6083334684372,1432.6100001335144,1.6666650772094727,1.15966796875,7.01904296875,-1.03759765625
1450.2200000286102,0.0205078125,-0.0595703125,1.08740234375,1432.6183334589005,1432.620000123978,1.6666650774368463,1.15966796875,7.01904296875,-1.03759765625
1450.2300000190735,0.0205078125,-0.0595703125,1.08740234375,1432.6283334493637,1432.630000114441,1.6666650772094727,-0.18310546875,-4.08935546875,-1.03759765625
1450.2400000095367,0.0478515625,0.0078125,0.92919921875,1432.638333439827,1432.6400001049042,1.6666650772094727,-0.18310546875,-4.08935546875,-1.03759765625
1450.25,0.0478515625,0.0078125,0.92919921875,1432.6483334302902,1432.6500000953674,1.6666650772094727,1.03759765625,5.06591796875,-1.03759765625
1450.2599999904633,0.00927734375,-0.072265625,0.984375,1432.6583334207537,1432.6600000858307,1.666665076982099,1.03759765625,5.06591796875,-1.03759765625
1450.2699999809265,0.00927734375,-0.072265625,0.984375,1432.6683334112167,1432.670000076294,1.6666650772094727,-0.06103515625,-1.220703125,-0.9765625
1450.2799999713898,0.0654296875,-0.00732421875,1.00341796875,1432.67833340168,1432.6800000667572,1.6666650772094727,-0.06103515625,-1.220703125,-0.9765625
1450.289999961853,0.0654296875,-0.00732421875,1.00341796875,1432.6883333921432,1432.6900000572205,1.6666650772094727,0.8544921875,3.90625,-1.03759765625
1450.2999999523165,0.0078125,-0.0751953125,0.98828125,1432.6983333826067,1432.7000000476835,1.6666650767547253,0.8544921875,3.90625,-1.03759765625
1450.3099999427795,0.0078125,-0.0751953125,0.98828125,1432.7083333730698,1432.710000038147,1.6666650772094727,-0.1220703125,-2.8076171875,-0.9765625
1450.3199999332428,0.05859375,0.00341796875,1.04833984375,1432.718333363533,1432.7200000286102,1.6666650772094727,-0.1220703125,-2.8076171875,-0.9765625
1450.329999923706,0.05859375,0.00341796875,1.04833984375,1432.7283333539965,1432.7300000190735,1.666665076982099,1.15966796875,5.7373046875,-1.03759765625
1450.3399999141693,0.01171875,-0.0673828125,1.0205078125,1432.7383333444595,1432.7400000095367,1.6666650772094727,1.15966796875,5.7373046875,-1.03759765625
1450.3499999046326,0.01171875,-0.0673828125,1.0205078125,1432.7483333349228,1432.75,1.6666650772094727,-0.30517578125,-3.90625,-1.0986328125
1450.3599998950958,0.05419921875,0.0185546875,1.0439453125,1432.758333325386,1432.7599999904637,1.66666507766422,-0.30517578125,-3.90625,-1.0986328125
1450.369999885559,0.05419921875,0.0185546875,1.0439453125,1432.7683333158493,1432.7699999809265,1.6666650772094727,1.28173828125,5.615234375,-1.0986328125
1450.3799998760223,0.00830078125,-0.0888671875,1.01806640625,1432.7783333063126,1432.7799999713898,1.6666650772094727,1.28173828125,5.615234375,-1.0986328125
1450.3899998664856,0.00830078125,-0.0888671875,1.01806640625,1432.7883332967758,1432.789999961853,1.6666650772094727,0.06103515625,-1.46484375,-1.03759765625
1450.4000000953674,0.0595703125,0.02294921875,1.15283203125,1432.7983335256577,1432.7999999523165,1.6664266588577448,0.06103515625,-1.46484375,-1.03759765625
1450.4100000858307,0.0595703125,0.02294921875,1.15283203125,1432.808333516121,1432.8099999427795,1.666426658630371,1.0986328125,2.685546875,-1.0986328125
1450.420000076294,0.00146484375,-0.08544921875,0.91357421875,1432.8183335065842,1432.8200001716614,1.6666650772094727,1.0986328125,2.685546875,-1.0986328125
1450.4300000667572,0.00146484375,-0.08544921875,0.91357421875,1432.8283334970474,1432.8300001621246,1.6666650772094727,0.1220703125,-0.6103515625,-1.0986328125
1450.4400000572205,0.05908203125,0.025390625,1.1201171875,1432.838333487511,1432.840000152588,1.666665076982099,0.1220703125,-0.6103515625,-1.0986328125
1450.4500000476835,-0.00048828125,-0.0703125,0.90478515625,1432.8483334779737,1432.8500001430511,1.6666650774368463,1.28173828125,4.69970703125,-1.0986328125
1450.460000038147,-0.00048828125,-0.0703125,0.90478515625,1432.8583334684372,1432.8600001335144,1.6666650772094727,1.28173828125,4.69970703125,-1.0986328125
1450.4700000286102,0.060546875,0.0302734375,1.09375,1432.8683334589005,1432.870000123978,1.6666650774368463,-0.06103515625,-2.50244140625,-1.0986328125
1450.4800000190735,0.060546875,0.0302734375,1.09375,1432.8783334493637,1432.880000114441,1.6666650772094727,1.28173828125,5.2490234375,-1.03759765625
1450.4900000095367,0.0126953125,-0.0625,0.884765625,1432.888333439827,1432.8900001049042,1.6666650772094727,1.28173828125,5.2490234375,-1.03759765625
1450.5,0.0126953125,-0.0625,0.884765625,1432.8983334302902,1432.9000000953674,1.6666650772094727,-0.06103515625,-1.953125,-1.03759765625
1450.5099999904633,0.0595703125,0.0029296875,1.12060546875,1432.9083334207537,1432.9100000858307,1.666665076982099,-0.06103515625,-1.953125,-1.03759765625
1450.5199999809265,0.0595703125,0.0029296875,1.12060546875,1432.9183334112167,1432.920000076294,1.6666650772094727,0.79345703125,3.2958984375,-1.03759765625
1450.5299999713898,-0.00244140625,-0.05419921875,0.87841796875,1432.92833340168,1432.9300000667572,1.6666650772094727,0.79345703125,3.2958984375,-1.03759765625
1450.539999961853,-0.00244140625,-0.05419921875,0.87841796875,1432.9383333921432,1432.9400000572205,1.6666650772094727,0.0,0.0,-1.03759765625
1450.5499999523165,0.05810546875,-0.0078125,1.16357421875,1432.9483333826067,1432.9500000476835,1.6666650767547253,0.0,0.0,-1.03759765625
1450.5599999427795,0.05810546875,-0.0078125,1.16357421875,1432.9583333730698,1432.960000038147,1.6666650772094727,0.54931640625,1.953125,-1.03759765625
1450.5699999332428,0.009765625,-0.0517578125,0.92236328125,1432.968333363533,1432.9700000286102,1.6666650772094727,0.54931640625,1.953125,-1.03759765625
1450.579999923706,0.009765625,-0.0517578125,0.92236328125,1432.9783333539965,1432.9800000190735,1.666665076982099,0.0,0.1220703125,-1.0986328125
1450.5899999141693,0.044921875,0.00244140625,1.1806640625,1432.9883333444595,1432.9900000095367,1.6666650772094727,0.0,0.1220703125,-1.0986328125
1450.5999999046326,0.044921875,0.00244140625,1.1806640625,1432.9983333349228,1433.0,1.6666650772094727,0.3662109375,1.28173828125,-1.03759765625
1450.6099998950958,0.00732421875,-0.0634765625,0.91845703125,1433.008333325386,1433.0099999904637,1.66666507766422,0.3662109375,1.28173828125,-1.03759765625
1450.619999885559,0.00732421875,-0.0634765625,0.91845703125,1433.0183333158493,1433.0199999809265,1.6666650772094727,0.244140625,1.89208984375,-1.0986328125
1450.6299998760223,0.04931640625,-0.0068359375,1.2451171875,1433.0283333063126,1433.0299999713898,1.6666650772094727,0.244140625,1.89208984375,-1.0986328125
1450.6399998664856,0.04931640625,-0.0068359375,1.2451171875,1433.0383332967758,1433.039999961853,1.6666650772094727,0.244140625,-0.18310546875,-1.0986328125
1450.6500000953674,0.01025390625,-0.052734375,0.84912109375,1433.0483335256577,1433.0499999523165,1.6664266588577448,0.244140625,-0.18310546875,-1.0986328125
1450.6600000858307,0.01025390625,-0.052734375,0.84912109375,1433.058333516121,1433.0599999427795,1.666426658630371,0.42724609375,2.62451171875,-1.0986328125
1450.670000076294,0.041015625,0.0,1.2041015625,1433.0683335065842,1433.0700001716614,1.6666650772094727,0.42724609375,2.62451171875,-1.0986328125
1450.6800000667572,0.041015625,0.0,1.2041015625,1433.0783334970474,1433.0800001621246,1.6666650772094727,0.3662109375,0.30517578125,-1.0986328125
1450.6900000572205,0.01708984375,-0.037109375,0.87548828125,1433.088333487511,1433.090000152588,1.666665076982099,0.3662109375,0.30517578125,-1.0986328125
1450.7000000476835,0.01708984375,-0.037109375,0.87548828125,1433.0983334779737,1433.1000001430511,1.6666650774368463,0.3662109375,2.0751953125,-1.0986328125
1450.710000038147,0.03466796875,-0.01318359375,1.1708984375,1433.1083334684372,1433.1100001335144,1.6666650772094727,0.3662109375,2.0751953125,-1.0986328125
1450.7200000286102,0.03466796875,-0.01318359375,1.1708984375,1433.1183334589005,1433.120000123978,1.6666650774368463,0.30517578125,0.18310546875,-1.0986328125
1450.7300000190735,0.0224609375,-0.0107421875,0.8603515625,1433.1283334493637,1433.130000114441,1.6666650772094727,0.30517578125,0.18310546875,-1.0986328125
1450.7400000095367,0.0224609375,-0.0107421875,0.8603515625,1433.138333439827,1433.1400001049042,1.6666650772094727,0.42724609375,2.62451171875,-1.15966796875
1450.75,0.02783203125,-0.01611328125,1.1142578125,1433.1483334302902,1433.1500000953674,1.6666650772094727,0.42724609375,2.62451171875,-1.15966796875
1450.7599999904633,0.02783203125,-0.01611328125,1.1142578125,1433.1583334207537,1433.1600000858307,1.666665076982099,0.1220703125,-0.79345703125,-1.0986328125
1450.7699999809265,0.029296875,-0.0166015625,0.90185546875,1433.1683334112167,1433.170000076294,1.6666650772094727,0.1220703125,-0.79345703125,-1.0986328125
1450.7799999713898,0.029296875,-0.0166015625,0.90185546875,1433.17833340168,1433.1800000667572,1.6666650772094727,0.42724609375,3.11279296875,-1.15966796875
1450.789999961853,0.02197265625,-0.03662109375,1.0712890625,1433.1883333921432,1433.1900000572205,1.6666650772094727,0.42724609375,3.11279296875,-1.15966796875
1450.7999999523165,0.02197265625,-0.03662109375,1.0712890625,1433.1983333826067,1433.2000000476835,1.6666650767547253,0.0,-1.15966796875,-1.0986328125
1450.8099999427795,0.03125,0.00048828125,0.9208984375,1433.2083333730698,1433.210000038147,1.6666650772094727,0.0,-1.15966796875,-1.0986328125
1450.8199999332428,0.03125,0.00048828125,0.9208984375,1433.218333363533,1433.2200000286102,1.6666650772094727,0.3662109375,3.84521484375,-1.0986328125
1450.829999923706,0.02587890625,-0.04248046875,1.080078125,1433.2283333539965,1433.2300000190735,1.666665076982099,0.3662109375,3.84521484375,-1.0986328125
1450.8399999141693,0.02587890625,-0.04248046875,1.080078125,1433.2383333444595,1433.2400000095367,1.6666650772094727,-0.54931640625,-2.3193359375,-1.03759765625
1450.8499999046326,0.0400390625,-0.0078125,0.97998046875,1433.2483333349228,1433.25,1.6666650772094727,-0.54931640625,-2.3193359375,-1.03759765625
1450.8599998950958,0.0400390625,-0.0078125,0.97998046875,1433.258333325386,1433.2599999904637,1.66666507766422,0.1220703125,3.662109375,-1.15966796875
1450.869999885559,0.0166015625,-0.0556640625,1.11865234375,1433.2683333158493,1433.2699999809265,1.6666650772094727,0.1220703125,3.662109375,-1.15966796875
1450.8799998760223,0.0166015625,-0.0556640625,1.11865234375,1433.2783333063126,1433.2799999713898,1.6666650772094727,-0.54931640625,-2.3193359375,-1.0986328125
1450.8899998664856,0.041015625,-0.00048828125,1.0419921875,1433.2883332967758,1433.289999961853,1.6666650772094727,-0.54931640625,-2.3193359375,-1.0986328125
1450.9000000953674,0.041015625,-0.00048828125,1.0419921875,1433.2983335256577,1433.2999999523165,1.6664266588577448,0.54931640625,3.7841796875,-1.0986328125
1450.9100000858307,0.00244140625,-0.04736328125,1.11328125,1433.308333516121,1433.3099999427795,1.666426658630371,0.54931640625,3.7841796875,-1.0986328125
1450.920000076294,0.00244140625,-0.04736328125,1.11328125,1433.3183335065842,1433.3200001716614,1.6666650772094727,-0.6103515625,-2.38037109375,-1.03759765625
1450.9300000667572,0.0458984375,0.005859375,1.05712890625,1433.3283334970474,1433.3300001621246,1.6666650772094727,-0.6103515625,-2.38037109375,-1.03759765625
1450.9400000572205,0.0458984375,0.005859375,1.05712890625,1433.338333487511,1433.340000152588,1.666665076982099,0.48828125,4.0283203125,-1.15966796875
1450.9500000476835,0.0029296875,-0.04052734375,1.11328125,1433.3483334779737,1433.3500001430511,1.6666650774368463,0.48828125,4.0283203125,-1.15966796875
1450.960000038147,0.0029296875,-0.04052734375,1.11328125,1433.3583334684372,1433.3600001335144,1.6666650772094727,-0.30517578125,-3.11279296875,-1.0986328125
1450.9700000286102,0.04150390625,0.025390625,0.962890625,1433.3683334589005,1433.370000123978,1.6666650774368463,-0.30517578125,-3.11279296875,-1.0986328125
1450.9800000190735,0.04150390625,0.025390625,0.962890625,1433.3783334493637,1433.380000114441,1.6666650772094727,0.91552734375,5.67626953125,-1.0986328125
1450.994999885559,0.00048828125,-0.0419921875,1.0478515625,1433.3933333158493,1433.3900001049042,3.3332109451293945,0.91552734375,5.67626953125,-1.0986328125
1451.0049998760223,0.00048828125,-0.0419921875,1.0478515625,1433.4033333063126,1433.4000000953674,3.3332109451293945,-0.42724609375,-2.99072265625,-1.03759765625
1451.0149998664856,0.041015625,0.00341796875,0.982421875,1433.4133332967758,1433.4100000858307,3.3332109451293945,-0.42724609375,-2.99072265625,-1.03759765625
1451.0250000953674,0.041015625,0.00341796875,0.982421875,1433.4233335256577,1433.420000076294,3.333449363708496,-0.42724609375,-2.99072265625,-1.03759765625
1451.0350000858307,-0.00732421875,-0.0615234375,0.95703125,1433.433333516121,1433.4300000667572,3.333449363708496,0.3662109375,3.41796875,-1.0986328125
1451.045000076294,-0.00732421875,-0.0615234375,0.95703125,1433.4433335065842,1433.4400000572205,3.333449363708496,0.3662109375,3.41796875,-1.0986328125
1451.0550000667572,0.05322265625,0.01611328125,1.005859375,1433.4533334970474,1433.4500000476835,3.3334493639358698,-0.42724609375,-1.28173828125,-1.03759765625
1451.0650000572205,0.05322265625,0.01611328125,1.005859375,1433.463333487511,1433.460000038147,3.3334493639358698,-0.42724609375,-1.28173828125,-1.03759765625
1451.0750000476835,-0.01123046875,-0.048828125,0.94384765625,1433.4733334779737,1433.4700000286102,3.3334493634811224,0.1220703125,2.74658203125,-1.0986328125
1451.085000038147,-0.01123046875,-0.048828125,0.94384765625,1433.4833334684372,1433.4800000190735,3.333449363708496,0.1220703125,2.74658203125,-1.0986328125
1451.0950000286102,0.05126953125,0.02099609375,1.02294921875,1433.4933334589005,1433.4900000095367,3.333449363708496,-0.67138671875,-2.0751953125,-1.03759765625
1451.1050000190735,0.05126953125,0.02099609375,1.02294921875,1433.5033334493637,1433.5,3.333449363708496,-0.67138671875,-2.0751953125,-1.03759765625
1451.1150000095367,-0.00390625,-0.06201171875,0.97314453125,1433.513333439827,1433.5099999904637,3.3334493632537487,0.1220703125,3.90625,-1.0986328125
1451.125,-0.00390625,-0.06201171875,0.97314453125,1433.5233334302902,1433.5199999809265,3.333449363708496,0.1220703125,3.90625,-1.0986328125
1451.1349999904633,0.0478515625,0.03076171875,1.09716796875,1433.5333334207537,1433.5299999713898,3.3334493639358698,-0.732421875,-3.47900390625,-1.03759765625
1451.1449999809265,0.0478515625,0.03076171875,1.09716796875,1433.5433334112167,1433.539999961853,3.333449363708496,-0.732421875,-3.47900390625,-1.03759765625
1451.1549999713898,-0.009765625,-0.064453125,0.97509765625,1433.55333340168,1433.5499999523165,3.3334493634811224,0.244140625,2.44140625,-1.03759765625
1451.164999961853,-0.009765625,-0.064453125,0.97509765625,1433.5633333921432,1433.5599999427795,3.333449363708496,0.244140625,2.44140625,-1.03759765625
1451.1749999523165,0.05712890625,0.0302734375,1.22705078125,1433.5733333826067,1433.5700001716614,3.333210945356768,-0.30517578125,-0.79345703125,-1.03759765625
1451.1849999427795,0.05712890625,0.0302734375,1.22705078125,1433.5833333730698,1433.5800001621246,3.3332109451293945,-0.30517578125,-0.79345703125,-1.03759765625
1451.1949999332428,-0.00439453125,-0.05029296875,0.9619140625,1433.593333363533,1433.590000152588,3.3332109451293945,0.18310546875,0.48828125,-1.03759765625
1451.204999923706,-0.00439453125,-0.05029296875,0.9619140625,1433.6033333539965,1433.6000001430511,3.333210945356768,0.18310546875,0.48828125,-1.03759765625
1451.2149999141693,0.05078125,0.02099609375,1.20654296875,1433.6133333444595,1433.6100001335144,3.3332109451293945,-0.3662109375,-1.708984375,-1.03759765625
1451.2249999046326,0.05078125,0.02099609375,1.20654296875,1433.6233333349228,1433.620000123978,3.333210944902021,-0.3662109375,-1.708984375,-1.03759765625
1451.2349998950958,-0.00927734375,-0.048828125,0.98046875,1433.633333325386,1433.630000114441,3.3332109451293945,0.54931640625,2.9296875,-0.9765625
1451.244999885559,-0.00927734375,-0.048828125,0.98046875,1433.6433333158493,1433.6400001049042,3.3332109451293945,0.54931640625,2.9296875,-0.9765625
1451.2549998760223,0.0400390625,0.03076171875,1.05224609375,1433.6533333063126,1433.6500000953674,3.3332109451293945,-0.67138671875,-2.8076171875,-0.9765625
1451.2649998664856,0.0400390625,0.03076171875,1.05224609375,1433.6633332967758,1433.6600000858307,3.3332109451293945,-0.67138671875,-2.8076171875,-0.9765625
1451.2750000953674,-0.0048828125,-0.04248046875,0.92919921875,1433.6733335256577,1433.670000076294,3.333449363708496,0.48828125,3.47900390625,-0.9765625
1451.2850000858307,-0.0048828125,-0.04248046875,0.92919921875,1433.683333516121,1433.6800000667572,3.333449363708496,0.48828125,3.47900390625,-0.9765625
1451.295000076294,0.0546875,-0.0107421875,1.10498046875,1433.6933335065842,1433.6900000572205,3.333449363708496,-0.48828125,-1.220703125,-0.9765625
1451.3050000667572,0.0546875,-0.0107421875,1.10498046875,1433.7033334970474,1433.7000000476835,3.3334493639358698,-0.48828125,-1.220703125,-0.9765625
1451.3150000572205,-0.01123046875,-0.03857421875,0.89453125,1433.713333487511,1433.710000038147,3.3334493639358698,0.0,-0.1220703125,-0.91552734375
1451.3250000476835,-0.01123046875,-0.03857421875,0.89453125,1433.7233334779737,1433.7200000286102,3.3334493634811224,0.0,-0.1220703125,-0.91552734375
1451.335000038147,0.0380859375,-0.0048828125,1.07421875,1433.7333334684372,1433.7300000190735,3.333449363708496,-0.18310546875,-0.18310546875,-0.9765625
1451.3450000286102,0.0380859375,-0.0048828125,1.07421875,1433.7433334589005,1433.7400000095367,3.333449363708496,-0.18310546875,-0.18310546875,-0.9765625
1451.3550000190735,-0.0009765625,-0.04296875,0.93212890625,1433.7533334493637,1433.75,3.333449363708496,0.06103515625,1.15966796875,-0.9765625
1451.3650000095367,-0.0009765625,-0.04296875,0.93212890625,1433.763333439827,1433.7599999904637,3.3334493632537487,0.06103515625,1.15966796875,-0.9765625
1451.375,0.03173828125,-0.00537109375,1.09912109375,1433.7733334302902,1433.7699999809265,3.333449363708496,-0.30517578125,-1.708984375,-0.91552734375
1451.3849999904633,0.03173828125,-0.00537109375,1.09912109375,1433.7833334207537,1433.7799999713898,3.3334493639358698,-0.30517578125,-1.708984375,-0.91552734375
1451.3949999809265,0.009765625,-0.03955078125,0.93310546875,1433.7933334112167,1433.789999961853,3.333449363708496,0.1220703125,0.06103515625,-0.8544921875
1451.4049999713898,0.009765625,-0.03955078125,0.93310546875,1433.80333340168,1433.7999999523165,3.3334493634811224,0.1220703125,0.06103515625,-0.8544921875
1451.414999961853,0.03857421875,0.00830078125,1.16259765625,1433.8133333921432,1433.8099999427795,3.333449363708496,0.1220703125,0.244140625,-0.9765625
1451.4249999523165,0.03857421875,0.00830078125,1.16259765625,1433.8233333826067,1433.8200001716614,3.333210945356768,0.1220703125,0.244140625,-0.9765625
1451.4349999427795,-0.00048828125,-0.03125,0.86865234375,1433.8333333730698,1433.8300001621246,3.3332109451293945,0.06103515625,-2.197265625,-0.91552734375
1451.4449999332428,-0.00048828125,-0.03125,0.86865234375,1433.843333363533,1433.840000152588,3.3332109451293945,0.06103515625,-2.197265625,-0.91552734375
1451.454999923706,0.02880859375,0.01025390625,1.220703125,1433.8533333539965,1433.8500001430511,3.333210945356768,0.48828125,1.52587890625,-0.91552734375
1451.4649999141693,0.02880859375,0.01025390625,1.220703125,1433.8633333444595,1433.8600001335144,3.3332109451293945,0.48828125,1.52587890625,-0.91552734375
1451.4749999046326,0.0185546875,-0.0185546875,0.9287109375,1433.8733333349228,1433.870000123978,3.333210944902021,0.1220703125,-1.46484375,-0.8544921875
1451.4849998950958,0.0185546875,-0.0185546875,0.9287109375,1433.883333325386,1433.880000114441,3.3332109451293945,0.1220703125,-1.46484375,-0.8544921875
1451.494999885559,0.021484375,-0.0029296875,1.1787109375,1433.8933333158493,1433.8900001049042,3.3332109451293945,0.1220703125,-0.9765625,-0.8544921875
1451.5049998760223,0.021484375,-0.0029296875,1.1787109375,1433.9033333063126,1433.9000000953674,3.3332109451293945,0.1220703125,-0.9765625,-0.8544921875
1451.5149998664856,0.01953125,-0.0126953125,0.958984375,1433.9133332967758,1433.9100000858307,3.3332109451293945,0.30517578125,-0.18310546875,-0.732421875
1451.5250000953674,0.01953125,-0.0126953125,0.958984375,1433.9233335256577,1433.920000076294,3.333449363708496,0.30517578125,-0.18310546875,-0.732421875
1451.5350000858307,0.01904296875,-0.02197265625,1.1220703125,1433.933333516121,1433.9300000667572,3.333449363708496,0.06103515625,0.0,-0.8544921875
1451.545000076294,0.01904296875,-0.02197265625,1.1220703125,1433.9433335065842,1433.9400000572205,3.333449363708496,0.06103515625,0.0,-0.8544921875
1451.5550000667572,0.01953125,-0.0068359375,0.89697265625,1433.9533334970474,1433.9500000476835,3.3334493639358698,-0.06103515625,-2.62451171875,-0.732421875
1451.5650000572205,0.01953125,-0.0068359375,0.89697265625,1433.963333487511,1433.960000038147,3.3334493639358698,-0.06103515625,-2.62451171875,-0.732421875
1451.5750000476835,0.0205078125,-0.0244140625,1.07177734375,1433.9733334779737,1433.9700000286102,3.3334493634811224,0.244140625,2.44140625,-0.8544921875
1451.585000038147,0.0205078125,-0.0244140625,1.07177734375,1433.9833334684372,1433.9800000190735,3.333449363708496,0.244140625,2.44140625,-0.8544921875
1451.5950000286102,0.017578125,-0.02587890625,0.92578125,1433.9933334589005,1433.9900000095367,3.333449363708496,0.06103515625,-3.173828125,-0.732421875
1451.6050000190735,0.017578125,-0.02587890625,0.92578125,1434.0033334493637,1434.0,3.333449363708496,0.06103515625,-3.173828125,-0.732421875
1451.6150000095367,0.0068359375,-0.03125,1.0283203125,1434.013333439827,1434.0099999904637,3.3334493632537487,0.3662109375,1.46484375,-0.79345703125
1451.625,0.0068359375,-0.03125,1.0283203125,1434.0233334302902,1434.0199999809265,3.333449363708496,0.3662109375,1.46484375,-0.79345703125
1451.6349999904633,0.02880859375,-0.013671875,0.892578125,1434.0333334207537,1434.0299999713898,3.3334493639358698,0.1220703125,-2.99072265625,-0.67138671875
1451.6449999809265,0.02880859375,-0.013671875,0.892578125,1434.0433334112167,1434.039999961853,3.333449363708496,0.1220703125,-2.99072265625,-0.67138671875
1451.6549999713898,0.01708984375,-0.0283203125,1.03564453125,1434.05333340168,1434.0499999523165,3.3334493634811224,0.6103515625,1.77001953125,-0.79345703125
1451.664999961853,0.01708984375,-0.0283203125,1.03564453125,1434.0633333921432,1434.0599999427795,3.333449363708496,0.6103515625,1.77001953125,-0.79345703125
1451.6749999523165,0.037109375,-0.00244140625,0.93994140625,1434.0733333826067,1434.0700001716614,3.333210945356768,0.18310546875,-3.72314453125,-0.67138671875
1451.6849999427795,0.037109375,-0.00244140625,0.93994140625,1434.0833333730698,1434.0800001621246,3.3332109451293945,0.18310546875,-3.72314453125,-0.67138671875
1451.6949999332428,0.005859375,-0.046875,1.119140625,1434.093333363533,1434.090000152588,3.3332109451293945,1.03759765625,1.708984375,-0.732421875
1451.704999923706,0.005859375,-0.046875,1.119140625,1434.1033333539965,1434.1000001430511,3.333210945356768,1.03759765625,1.708984375,-0.732421875
1451.7149999141693,0.0419921875,0.0166015625,0.962890625,1434.1133333444595,1434.1100001335144,3.3332109451293945,0.1220703125,-4.5166015625,-0.67138671875
1451.7249999046326,0.0419921875,0.0166015625,0.962890625,1434.1233333349228,1434.120000123978,3.333210944902021,0.1220703125,-4.5166015625,-0.67138671875
1451.7349998950958,0.00341796875,-0.0390625,1.0712890625,1434.133333325386,1434.130000114441,3.3332109451293945,1.0986328125,1.52587890625,-0.732421875
1451.744999885559,0.00341796875,-0.0390625,1.0712890625,1434.1433333158493,1434.1400001049042,3.3332109451293945,1.0986328125,1.52587890625,-0.732421875
1451.7549998760223,0.0478515625,0.021484375,1.01123046875,1434.1533333063126,1434.1500000953674,3.3332109451293945,0.30517578125,-3.173828125,-0.6103515625
1451.7649998664856,0.0478515625,0.021484375,1.01123046875,1434.1633332967758,1434.1600000858307,3.3332109451293945,0.30517578125,-3.173828125,-0.6103515625
1451.7750000953674,-0.00341796875,-0.0361328125,1.09912109375,1434.1733335256577,1434.170000076294,3.333449363708496,1.15966796875,1.15966796875,-0.67138671875
1451.7850000858307,-0.00341796875,-0.0361328125,1.09912109375,1434.183333516121,1434.1800000667572,3.333449363708496,1.15966796875,1.15966796875,-0.67138671875
1451.795000076294,0.05126953125,0.02001953125,0.986328125,1434.1933335065842,1434.1900000572205,3.333449363708496,0.30517578125,-4.39453125,-0.54931640625
1451.8050000667572,0.05126953125,0.02001953125,0.986328125,1434.2033334970474,1434.2000000476835,3.3334493639358698,0.30517578125,-4.39453125,-0.54931640625
1451.8150000572205,0.00048828125,-0.052734375,1.06494140625,1434.213333487511,1434.210000038147,3.3334493639358698,1.220703125,2.44140625,-0.48828125
1451.8250000476835,0.00048828125,-0.052734375,1.06494140625,1434.2233334779737,1434.2200000286102,3.3334493634811224,1.220703125,2.44140625,-0.48828125
1451.835000038147,0.04052734375,0.00341796875,0.9619140625,1434.2333334684372,1434.2300000190735,3.333449363708496,0.1220703125,-5.0048828125,-0.48828125
1451.8450000286102,0.04052734375,0.00341796875,0.9619140625,1434.2433334589005,1434.2400000095367,3.333449363708496,0.1220703125,-5.0048828125,-0.48828125
1451.8550000190735,-0.001953125,-0.05615234375,1.00341796875,1434.2533334493637,1434.25,3.333449363708496,1.3427734375,2.86865234375,-0.54931640625
1451.8650000095367,-0.001953125,-0.05615234375,1.00341796875,1434.263333439827,1434.2599999904637,3.3334493632537487,1.3427734375,2.86865234375,-0.54931640625
1451.875,0.0517578125,0.0166015625,0.97509765625,1434.2733334302902,1434.2699999809265,3.333449363708496,0.48828125,-4.0283203125,-0.48828125
1451.8849999904633,0.0517578125,0.0166015625,0.97509765625,1434.2833334207537,1434.2799999713898,3.3334493639358698,0.48828125,-4.0283203125,-0.48828125
1451.8949999809265,-0.00537109375,-0.060546875,0.9150390625,1434.2933334112167,1434.289999961853,3.333449363708496,1.220703125,0.8544921875,-0.54931640625
1451.9049999713898,-0.00537109375,-0.060546875,0.9150390625,1434.30333340168,1434.2999999523165,3.3334493634811224,1.220703125,0.8544921875,-0.54931640625
1451.914999961853,0.04248046875,0.03857421875,1.0009765625,1434.3133333921432,1434.3099999427795,3.333449363708496,0.54931640625,-2.99072265625,-0.48828125
1451.9249999523165,0.04248046875,0.03857421875,1.0009765625,1434.3233333826067,1434.3200001716614,3.333210945356768,0.54931640625,-2.99072265625,-0.48828125
1451.9349999427795,-0.00341796875,-0.06689453125,0.8857421875,1434.3333333730698,1434.3300001621246,3.3332109451293945,1.5869140625,1.15966796875,-0.48828125
1451.9449999332428,-0.00341796875,-0.06689453125,0.8857421875,1434.343333363533,1434.340000152588,3.3332109451293945,1.5869140625,1.15966796875,-0.48828125
1451.954999923706,0.06884765625,0.02783203125,1.0107421875,1434.3533333539965,1434.3500001430511,3.333210945356768,0.67138671875,-3.5400390625,-0.42724609375
1451.9649999141693,0.06884765625,0.02783203125,1.0107421875,1434.3633333444595,1434.3600001335144,3.3332109451293945,0.67138671875,-3.5400390625,-0.42724609375
1451.9749999046326,0.0029296875,-0.0654296875,0.93310546875,1434.3733333349228,1434.370000123978,3.333210944902021,1.8310546875,0.91552734375,-0.42724609375
1451.9800000190735,0.0029296875,-0.0654296875,0.93310546875,1434.3783334493637,1434.380000114441,1.6666650772094727,1.8310546875,0.91552734375,-0.42724609375
1452.0,0.05029296875,0.029296875,1.046875,1434.3983334302902,1434.4000000953674,1.6666650772094727,0.54931640625,-4.8828125,-0.3662109375
1452.0099999904633,-0.0029296875,-0.06591796875,0.94580078125,1434.4083334207537,1434.4100000858307,1.666665076982099,0.54931640625,-4.8828125,-0.3662109375
1452.0199999809265,-0.0029296875,-0.06591796875,0.94580078125,1434.4183334112167,1434.420000076294,1.6666650772094727,1.77001953125,2.13623046875,-0.3662109375
1452.0299999713898,0.056640625,0.021484375,1.109375,1434.42833340168,1434.4300000667572,1.6666650772094727,1.77001953125,2.13623046875,-0.3662109375
1452.039999961853,0.056640625,0.021484375,1.109375,1434.4383333921432,1434.4400000572205,1.6666650772094727,0.732421875,-4.5166015625,-0.3662109375
1452.0499999523165,0.0029296875,-0.06005859375,0.92431640625,1434.4483333826067,1434.4500000476835,1.6666650767547253,0.732421875,-4.5166015625,-0.3662109375
1452.0599999427795,0.0029296875,-0.06005859375,0.92431640625,1434.4583333730698,1434.460000038147,1.6666650772094727,1.8310546875,0.79345703125,-0.3662109375
1452.0699999332428,0.0634765625,0.0166015625,1.1533203125,1434.468333363533,1434.4700000286102,1.6666650772094727,1.8310546875,0.79345703125,-0.3662109375
1452.079999923706,0.0634765625,0.0166015625,1.1533203125,1434.4783333539965,1434.4800000190735,1.666665076982099,0.79345703125,-3.173828125,-0.3662109375
1452.0899999141693,-0.00341796875,-0.05712890625,0.88134765625,1434.4883333444595,1434.4900000095367,1.6666650772094727,0.79345703125,-3.173828125,-0.3662109375
1452.0999999046326,-0.00341796875,-0.05712890625,0.88134765625,1434.4983333349228,1434.5,1.6666650772094727,1.52587890625,0.0,-0.3662109375
1452.1099998950958,0.0556640625,0.0009765625,1.15380859375,1434.508333325386,1434.5099999904637,1.66666507766422,1.52587890625,0.0,-0.3662109375
1452.119999885559,0.0556640625,0.0009765625,1.15380859375,1434.5183333158493,1434.5199999809265,1.6666650772094727,1.03759765625,-2.86865234375,-0.30517578125
1452.1299998760223,0.01220703125,-0.05126953125,0.87646484375,1434.5283333063126,1434.5299999713898,1.6666650772094727,1.03759765625,-2.86865234375,-0.30517578125
1452.1399998664856,0.01220703125,-0.05126953125,0.87646484375,1434.5383332967758,1434.539999961853,1.6666650772094727,2.01416015625,1.28173828125,-0.30517578125
1452.1500000953674,0.04833984375,0.0078125,1.12060546875,1434.5483335256577,1434.5499999523165,1.6664266588577448,2.01416015625,1.28173828125,-0.30517578125
1452.1600000858307,0.04833984375,0.0078125,1.12060546875,1434.558333516121,1434.5599999427795,1.666426658630371,1.03759765625,-3.96728515625,-0.30517578125
1452.170000076294,0.0146484375,-0.05810546875,0.82958984375,1434.5683335065842,1434.5700001716614,1.6666650772094727,1.03759765625,-3.96728515625,-0.30517578125
1452.1800000667572,0.0146484375,-0.05810546875,0.82958984375,1434.5783334970474,1434.5800001621246,1.6666650772094727,1.89208984375,0.18310546875,-0.30517578125
1452.1900000572205,0.0478515625,0.01123046875,1.18310546875,1434.588333487511,1434.590000152588,1.666665076982099,1.89208984375,0.18310546875,-0.30517578125
1452.2000000476835,0.0478515625,0.01123046875,1.18310546875,1434.5983334779737,1434.6000001430511,1.6666650774368463,1.3427734375,-0.3662109375,-0.30517578125
1452.210000038147,0.0029296875,-0.0537109375,0.7451171875,1434.6083334684372,1434.6100001335144,1.6666650772094727,1.3427734375,-0.3662109375,-0.30517578125
1452.2200000286102,0.0029296875,-0.0537109375,0.7451171875,1434.6183334589005,1434.620000123978,1.6666650774368463,1.64794921875,-3.5400390625,-0.244140625
1452.2300000190735,0.04736328125,0.0029296875,1.19287109375,1434.6283334493637,1434.630000114441,1.6666650772094727,1.64794921875,-3.5400390625,-0.244140625
1452.2400000095367,0.04736328125,0.0029296875,1.19287109375,1434.638333439827,1434.6400001049042,1.6666650772094727,1.708984375,1.28173828125,-0.30517578125
1452.25,0.02490234375,-0.0390625,0.79296875,1434.6483334302902,1434.6500000953674,1.6666650772094727,1.708984375,1.28173828125,-0.30517578125
1452.2599999904633,0.02490234375,-0.0390625,0.79296875,1434.6583334207537,1434.6600000858307,1.666665076982099,1.708984375,-2.13623046875,-0.244140625
1452.2699999809265,0.04443359375,0.01025390625,1.126953125,1434.6683334112167,1434.670000076294,1.6666650772094727,1.708984375,-2.13623046875,-0.244140625
1452.2799999713898,0.04443359375,0.01025390625,1.126953125,1434.67833340168,1434.6800000667572,1.6666650772094727,1.3427734375,-1.64794921875,-0.3662109375
1452.289999961853,0.02294921875,-0.02685546875,0.87255859375,1434.6883333921432,1434.6900000572205,1.6666650772094727,1.3427734375,-1.64794921875,-0.3662109375
1452.2999999523165,0.02294921875,-0.02685546875,0.87255859375,1434.6983333826067,1434.7000000476835,1.6666650767547253,1.77001953125,-0.54931640625,-0.244140625
1452.3099999427795,0.0361328125,-0.01708984375,1.14111328125,1434.7083333730698,1434.710000038147,1.6666650772094727,1.77001953125,-0.54931640625,-0.244140625
1452.3199999332428,0.0361328125,-0.01708984375,1.14111328125,1434.718333363533,1434.7200000286102,1.6666650772094727,1.46484375,-0.79345703125,-0.244140625
1452.329999923706,0.037109375,-0.0126953125,0.84912109375,1434.7283333539965,1434.7300000190735,1.666665076982099,1.46484375,-0.79345703125,-0.244140625
1452.3399999141693,0.037109375,-0.0126953125,0.84912109375,1434.7383333444595,1434.7400000095367,1.6666650772094727,1.3427734375,-2.99072265625,-0.244140625
1452.3499999046326,0.04638671875,-0.0322265625,1.140625,1434.7483333349228,1434.75,1.6666650772094727,1.3427734375,-2.99072265625,-0.244140625
1452.3599998950958,0.04638671875,-0.0322265625,1.140625,1434.758333325386,1434.7599999904637,1.66666507766422,1.708984375,1.0986328125,-0.244140625
1452.369999885559,0.03662109375,-0.01318359375,0.88671875,1434.7683333158493,1434.7699999809265,1.6666650772094727,1.708984375,1.0986328125,-0.244140625
1452.3799998760223,0.03662109375,-0.01318359375,0.88671875,1434.7783333063126,1434.7799999713898,1.6666650772094727,1.28173828125,-3.23486328125,-0.18310546875
1452.3899998664856,0.029296875,-0.0390625,1.125,1434.7883332967758,1434.789999961853,1.6666650772094727,1.28173828125,-3.23486328125,-0.18310546875
1452.4000000953674,0.029296875,-0.0390625,1.125,1434.7983335256577,1434.7999999523165,1.6664266588577448,1.708984375,0.91552734375,-0.30517578125
1452.4100000858307,0.04833984375,-0.01123046875,0.9306640625,1434.808333516121,1434.8099999427795,1.666426658630371,1.708984375,0.91552734375,-0.30517578125
1452.420000076294,0.04833984375,-0.01123046875,0.9306640625,1434.8183335065842,1434.8200001716614,1.6666650772094727,1.0986328125,-3.11279296875,-0.18310546875
1452.4300000667572,0.02294921875,-0.04150390625,1.09423828125,1434.8283334970474,1434.8300001621246,1.6666650772094727,1.0986328125,-3.11279296875,-0.18310546875
1452.4400000572205,0.02294921875,-0.04150390625,1.09423828125,1434.838333487511,1434.840000152588,1.666665076982099,1.708984375,1.220703125,-0.18310546875
1452.4500000476835,0.05126953125,-0.00390625,0.919921875,1434.8483334779737,1434.8500001430511,1.6666650774368463,1.708984375,1.220703125,-0.18310546875
1452.460000038147,0.05126953125,-0.00390625,0.919921875,1434.8583334684372,1434.8600001335144,1.6666650772094727,0.91552734375,-4.5166015625,-0.18310546875
1452.4700000286102,0.02734375,-0.04345703125,1.10546875,1434.8683334589005,1434.870000123978,1.6666650774368463,0.91552734375,-4.5166015625,-0.18310546875
1452.4800000190735,0.02734375,-0.04345703125,1.10546875,1434.8783334493637,1434.880000114441,1.6666650772094727,2.0751953125,3.7841796875,-0.30517578125
1452.4900000095367,0.04736328125,0.015625,0.9208984375,1434.888333439827,1434.8900001049042,1.6666650772094727,2.0751953125,3.7841796875,-0.30517578125
1452.5,0.04736328125,0.015625,0.9208984375,1434.8983334302902,1434.9000000953674,1.6666650772094727,0.732421875,-5.67626953125,-0.244140625
1452.5099999904633,0.0146484375,-0.0390625,1.01904296875,1434.9083334207537,1434.9100000858307,1.666665076982099,0.732421875,-5.67626953125,-0.244140625
1452.5199999809265,0.0146484375,-0.0390625,1.01904296875,1434.9183334112167,1434.920000076294,1.6666650772094727,1.8310546875,3.173828125,-0.30517578125
1452.5299999713898,0.0693359375,0.0048828125,0.95166015625,1434.92833340168,1434.9300000667572,1.6666650772094727,1.8310546875,3.173828125,-0.30517578125
1452.539999961853,0.0693359375,0.0048828125,0.95166015625,1434.9383333921432,1434.9400000572205,1.6666650772094727,0.8544921875,-3.41796875,-0.18310546875
1452.5499999523165,0.01416015625,-0.05078125,1.0029296875,1434.9483333826067,1434.9500000476835,1.6666650767547253,0.8544921875,-3.41796875,-0.18310546875
1452.5599999427795,0.01416015625,-0.05078125,1.0029296875,1434.9583333730698,1434.960000038147,1.6666650772094727,1.77001953125,1.953125,-0.244140625
1452.5699999332428,0.07080078125,0.02978515625,0.9736328125,1434.968333363533,1434.9700000286102,1.6666650772094727,1.77001953125,1.953125,-0.244140625
1452.579999923706,0.07080078125,0.02978515625,0.9736328125,1434.9783333539965,1434.9800000190735,1.666665076982099,0.6103515625,-4.150390625,-0.244140625
1452.5899999141693,0.0146484375,-0.05859375,1.01318359375,1434.9883333444595,1434.9900000095367,1.6666650772094727,0.6103515625,-4.150390625,-0.244140625
1452.5999999046326,0.0146484375,-0.05859375,1.01318359375,1434.9983333349228,1435.0,1.6666650772094727,1.5869140625,3.0517578125,-0.244140625
1452.6099998950958,0.06494140625,0.0341796875,0.98388671875,1435.008333325386,1435.0099999904637,1.66666507766422,1.5869140625,3.0517578125,-0.244140625
1452.619999885559,0.06494140625,0.0341796875,0.98388671875,1435.0183333158493,1435.0199999809265,1.6666650772094727,0.244140625,-4.7607421875,-0.244140625
1452.6299998760223,0.00927734375,-0.06201171875,0.96533203125,1435.0283333063126,1435.0299999713898,1.6666650772094727,0.244140625,-4.7607421875,-0.244140625
1452.6399998664856,0.00927734375,-0.06201171875,0.96533203125,1435.0383332967758,1435.039999961853,1.6666650772094727,1.40380859375,3.0517578125,-0.244140625
1452.6500000953674,0.0791015625,0.04150390625,1.0771484375,1435.0483335256577,1435.0499999523165,1.6664266588577448,1.40380859375,3.0517578125,-0.244140625
1452.6600000858307,0.0791015625,0.04150390625,1.0771484375,1435.058333516121,1435.0599999427795,1.666426658630371,0.244140625,-2.86865234375,-0.244140625
1452.670000076294,0.00927734375,-0.078125,0.9013671875,1435.0683335065842,1435.0700001716614,1.6666650772094727,0.244140625,-2.86865234375,-0.244140625
1452.6800000667572,0.00927734375,-0.078125,0.9013671875,1435.0783334970474,1435.0800001621246,1.6666650772094727,1.15966796875,0.9765625,-0.244140625
1452.6900000572205,0.0703125,0.03125,1.07470703125,1435.088333487511,1435.090000152588,1.666665076982099,1.15966796875,0.9765625,-0.244140625
1452.7000000476835,0.0703125,0.03125,1.07470703125,1435.0983334779737,1435.1000001430511,1.6666650774368463,0.06103515625,-3.0517578125,-0.18310546875
1452.710000038147,0.01806640625,-0.06201171875,0.9580078125,1435.1083334684372,1435.1100001335144,1.6666650772094727,0.06103515625,-3.0517578125,-0.18310546875
1452.7200000286102,0.01806640625,-0.06201171875,0.9580078125,1435.1183334589005,1435.120000123978,1.6666650774368463,1.3427734375,3.47900390625,-0.244140625
1452.7300000190735,0.072265625,0.0390625,1.07861328125,1435.1283334493637,1435.130000114441,1.6666650772094727,1.3427734375,3.47900390625,-0.244140625
1452.7400000095367,0.072265625,0.0390625,1.07861328125,1435.138333439827,1435.1400001049042,1.6666650772094727,-0.18310546875,-5.126953125,-0.18310546875
1452.75,0.02197265625,-0.0537109375,0.947265625,1435.1483334302902,1435.1500000953674,1.6666650772094727,-0.18310546875,-5.126953125,-0.18310546875
1452.7599999904633,0.02197265625,-0.0537109375,0.947265625,1435.1583334207537,1435.1600000858307,1.666665076982099,1.220703125,3.90625,-0.244140625
1452.7699999809265,0.07080078125,0.01416015625,1.09765625,1435.1683334112167,1435.170000076294,1.6666650772094727,1.220703125,3.90625,-0.244140625
1452.7799999713898,0.07080078125,0.01416015625,1.09765625,1435.17833340168,1435.1800000667572,1.6666650772094727,-0.244140625,-3.96728515625,-0.244140625
1452.789999961853,0.01025390625,-0.0439453125,0.9208984375,1435.1883333921432,1435.1900000572205,1.6666650772094727,-0.244140625,-3.96728515625,-0.244140625
1452.7999999523165,0.01025390625,-0.0439453125,0.9208984375,1435.1983333826067,1435.2000000476835,1.6666650767547253,0.91552734375,2.62451171875,-0.244140625
1452.8099999427795,0.0732421875,0.01611328125,1.0849609375,1435.2083333730698,1435.210000038147,1.6666650772094727,0.91552734375,2.62451171875,-0.244140625
1452.8199999332428,0.0732421875,0.01611328125,1.0849609375,1435.218333363533,1435.2200000286102,1.6666650772094727,-0.30517578125,-2.74658203125,-0.244140625
1452.829999923706,0.029296875,-0.04736328125,0.94970703125,1435.2283333539965,1435.2300000190735,1.666665076982099,-0.30517578125,-2.74658203125,-0.244140625
1452.8399999141693,0.029296875,-0.04736328125,0.94970703125,1435.2383333444595,1435.2400000095367,1.6666650772094727,0.67138671875,2.8076171875,-0.244140625
1452.8499999046326,0.068359375,0.0302734375,1.09130859375,1435.2483333349228,1435.25,1.6666650772094727,0.67138671875,2.8076171875,-0.244140625
1452.8599998950958,0.068359375,0.0302734375,1.09130859375,1435.258333325386,1435.2599999904637,1.66666507766422,-0.42724609375,-2.86865234375,-0.244140625
1452.869999885559,0.0107421875,-0.04443359375,0.88623046875,1435.2683333158493,1435.2699999809265,1.6666650772094727,-0.42724609375,-2.86865234375,-0.244140625
1452.8799998760223,0.0107421875,-0.04443359375,0.88623046875,1435.2783333063126,1435.2799999713898,1.6666650772094727,0.3662109375,1.03759765625,-0.244140625
1452.8899998664856,0.07763671875,0.02294921875,1.18310546875,1435.2883332967758,1435.289999961853,1.6666650772094727,0.3662109375,1.03759765625,-0.244140625
1452.9000000953674,0.07763671875,0.02294921875,1.18310546875,1435.2983335256577,1435.2999999523165,1.6664266588577448,-0.244140625,0.54931640625,-0.30517578125
1452.9100000858307,0.021484375,-0.05029296875,0.837890625,1435.308333516121,1435.3099999427795,1.666426658630371,-0.244140625,0.54931640625,-0.30517578125
1452.920000076294,0.021484375,-0.05029296875,0.837890625,1435.3183335065842,1435.3200001716614,1.6666650772094727,-0.18310546875,-0.8544921875,-0.244140625
1452.9300000667572,0.0625,0.02783203125,1.1787109375,1435.3283334970474,1435.3300001621246,1.6666650772094727,-0.18310546875,-0.8544921875,-0.244140625
1452.9400000572205,0.0625,0.02783203125,1.1787109375,1435.338333487511,1435.340000152588,1.666665076982099,-0.42724609375,-0.1220703125,-0.30517578125
1452.9500000476835,0.0380859375,-0.06396484375,0.85986328125,1435.3483334779737,1435.3500001430511,1.6666650774368463,-0.42724609375,-0.1220703125,-0.30517578125
1452.960000038147,0.0380859375,-0.06396484375,0.85986328125,1435.3583334684372,1435.3600001335144,1.6666650772094727,0.0,1.0986328125,-0.244140625
1452.9700000286102,0.060546875,0.0205078125,1.2099609375,1435.3683334589005,1435.370000123978,1.6666650774368463,0.0,1.0986328125,-0.244140625
1452.9800000190735,0.060546875,0.0205078125,1.2099609375,1435.3783334493637,1435.380000114441,1.6666650772094727,-0.6103515625,-0.67138671875,-0.30517578125
1452.9900000095367,0.046875,0.01513671875,1.263671875,1435.388333439827,1435.3900001049042,1.6666650772094727,-0.6103515625,-0.67138671875,-0.30517578125
1453.0099999904633,0.046875,0.01513671875,1.263671875,1435.4083334207537,1435.4100000858307,1.666665076982099,-0.244140625,-0.18310546875,-0.244140625
1453.0199999809265,0.046875,0.01513671875,1.263671875,1435.4183334112167,1435.420000076294,1.6666650772094727,-0.244140625,-0.18310546875,-0.244140625
1453.0299999713898,0.05126953125,-0.01123046875,0.7705078125,1435.42833340168,1435.4300000667572,1.6666650772094727,-0.6103515625,1.953125,-0.3662109375
1453.039999961853,0.05126953125,-0.01123046875,0.7705078125,1435.4383333921432,1435.4400000572205,1.6666650772094727,-0.6103515625,1.953125,-0.3662109375
1453.0499999523165,0.0390625,-0.02490234375,1.19140625,1435.4483333826067,1435.4500000476835,1.6666650767547253,-0.48828125,-1.708984375,-0.244140625
1453.0599999427795,0.0390625,-0.02490234375,1.19140625,1435.4583333730698,1435.460000038147,1.6666650772094727,-0.30517578125,2.0751953125,-0.244140625
1453.0699999332428,0.07666015625,-0.015625,0.89892578125,1435.468333363533,1435.4700000286102,1.6666650772094727,-0.30517578125,2.0751953125,-0.244140625
1453.079999923706,0.07666015625,-0.015625,0.89892578125,1435.4783333539965,1435.4800000190735,1.666665076982099,-0.30517578125,2.0751953125,-0.244140625
1453.0899999141693,0.01611328125,-0.01220703125,1.1533203125,1435.4883333444595,1435.4900000095367,1.6666650772094727,-0.48828125,-0.79345703125,-0.244140625
1453.0999999046326,0.01611328125,-0.01220703125,1.1533203125,1435.4983333349228,1435.5,1.6666650772094727,-0.48828125,-0.79345703125,-0.244140625
1453.1099998950958,0.0625,0.00634765625,0.8896484375,1435.508333325386,1435.5099999904637,1.66666507766422,-0.6103515625,1.708984375,-0.3662109375
1453.119999885559,0.0625,0.00634765625,0.8896484375,1435.5183333158493,1435.5199999809265,1.6666650772094727,-0.6103515625,1.708984375,-0.3662109375
1453.1299998760223,0.029296875,-0.0400390625,1.189453125,1435.5283333063126,1435.5299999713898,1.6666650772094727,-0.79345703125,-3.2958984375,-0.244140625
1453.1399998664856,0.029296875,-0.0400390625,1.189453125,1435.5383332967758,1435.539999961853,1.6666650772094727,-0.79345703125,-3.2958984375,-0.244140625
1453.1500000953674,0.0771484375,0.025390625,0.88623046875,1435.5483335256577,1435.5499999523165,1.6664266588577448,0.54931640625,7.38525390625,-0.30517578125
1453.1600000858307,0.0771484375,0.025390625,0.88623046875,1435.558333516121,1435.5599999427795,1.666426658630371,0.54931640625,7.38525390625,-0.30517578125
1453.170000076294,0.009765625,-0.05517578125,1.0966796875,1435.5683335065842,1435.5700001716614,1.6666650772094727,-1.28173828125,-6.9580078125,-0.244140625
1453.1800000667572,0.009765625,-0.05517578125,1.0966796875,1435.5783334970474,1435.5800001621246,1.6666650772094727,-1.28173828125,-6.9580078125,-0.244140625
1453.1900000572205,0.07958984375,0.04541015625,1.03076171875,1435.588333487511,1435.590000152588,1.666665076982099,0.3662109375,6.34765625,-0.3662109375
1453.2000000476835,0.07958984375,0.04541015625,1.03076171875,1435.5983334779737,1435.6000001430511,1.6666650774368463,0.3662109375,6.34765625,-0.3662109375
1453.210000038147,0.02880859375,-0.060546875,0.9697265625,1435.6083334684372,1435.6100001335144,1.6666650772094727,-1.15966796875,-3.11279296875,-0.3662109375
1453.2200000286102,0.02880859375,-0.060546875,0.9697265625,1435.6183334589005,1435.620000123978,1.6666650774368463,-1.15966796875,-3.11279296875,-0.3662109375
1453.2300000190735,0.0576171875,0.0390625,1.16015625,1435.6283334493637,1435.630000114441,1.6666650772094727,0.42724609375,4.94384765625,-0.3662109375
1453.2400000095367,0.0576171875,0.0390625,1.16015625,1435.638333439827,1435.6400001049042,1.6666650772094727,0.42724609375,4.94384765625,-0.3662109375
1453.25,0.0419921875,-0.06494140625,0.87890625,1435.6483334302902,1435.6500000953674,1.6666650772094727,-1.3427734375,-5.7373046875,-0.3662109375
1453.2599999904633,0.0419921875,-0.06494140625,0.87890625,1435.6583334207537,1435.6600000858307,1.666665076982099,-1.3427734375,-5.7373046875,-0.3662109375
1453.2699999809265,0.03564453125,0.046875,1.1640625,1435.6683334112167,1435.670000076294,1.6666650772094727,1.0986328125,8.60595703125,-0.30517578125
1453.2799999713898,0.03564453125,0.046875,1.1640625,1435.67833340168,1435.6800000667572,1.6666650772094727,1.0986328125,8.60595703125,-0.30517578125
1453.289999961853,0.07080078125,-0.06396484375,0.88134765625,1435.6883333921432,1435.6900000572205,1.6666650772094727,-1.64794921875,-6.53076171875,-0.42724609375
1453.2999999523165,0.07080078125,-0.06396484375,0.88134765625,1435.6983333826067,1435.7000000476835,1.6666650767547253,-1.64794921875,-6.53076171875,-0.42724609375
1453.3099999427795,0.01513671875,0.044921875,1.1728515625,1435.7083333730698,1435.710000038147,1.6666650772094727,0.6103515625,5.79833984375,-0.3662109375
1453.3199999332428,0.01513671875,0.044921875,1.1728515625,1435.718333363533,1435.7200000286102,1.6666650772094727,0.6103515625,5.79833984375,-0.3662109375
1453.329999923706,0.0478515625,-0.044921875,0.88916015625,1435.7283333539965,1435.7300000190735,1.666665076982099,-0.79345703125,-0.42724609375,-0.3662109375
1453.3399999141693,0.0478515625,-0.044921875,0.88916015625,1435.7383333444595,1435.7400000095367,1.6666650772094727,-0.79345703125,-0.42724609375,-0.3662109375
1453.3499999046326,0.0546875,0.00732421875,1.06494140625,1435.7483333349228,1435.75,1.6666650772094727,-0.18310546875,-1.0986328125,-0.42724609375
1453.3599998950958,0.0546875,0.00732421875,1.06494140625,1435.758333325386,1435.7599999904637,1.66666507766422,-0.18310546875,-1.0986328125,-0.42724609375
1453.369999885559,0.0341796875,-0.02001953125,1.00732421875,1435.7683333158493,1435.7699999809265,1.6666650772094727,-0.1220703125,5.06591796875,-0.30517578125
1453.3799998760223,0.0341796875,-0.02001953125,1.00732421875,1435.7783333063126,1435.7799999713898,1.6666650772094727,-0.1220703125,5.06591796875,-0.30517578125
1453.3899998664856,0.05517578125,-0.009765625,0.95703125,1435.7883332967758,1435.789999961853,1.6666650772094727,-0.6103515625,-2.86865234375,-0.42724609375
1453.4000000953674,0.05517578125,-0.009765625,0.95703125,1435.7983335256577,1435.7999999523165,1.6664266588577448,-0.6103515625,-2.86865234375,-0.42724609375
1453.4100000858307,0.03076171875,0.02197265625,1.12646484375,1435.808333516121,1435.8099999427795,1.666426658630371,-0.1220703125,2.9296875,-0.3662109375
1453.420000076294,0.03076171875,0.02197265625,1.12646484375,1435.8183335065842,1435.8200001716614,1.6666650772094727,-0.1220703125,2.9296875,-0.3662109375
1453.4300000667572,0.06298828125,-0.02392578125,0.9287109375,1435.8283334970474,1435.8300001621246,1.6666650772094727,-0.54931640625,1.52587890625,-0.48828125
1453.4400000572205,0.06298828125,-0.02392578125,0.9287109375,1435.838333487511,1435.840000152588,1.666665076982099,-0.54931640625,1.52587890625,-0.48828125
1453.4500000476835,0.02197265625,0.01513671875,1.056640625,1435.8483334779737,1435.8500001430511,1.6666650774368463,-0.18310546875,-0.732421875,-0.244140625
1453.460000038147,0.02197265625,0.01513671875,1.056640625,1435.8583334684372,1435.8600001335144,1.6666650772094727,-0.18310546875,-0.732421875,-0.244140625
1453.4700000286102,0.0517578125,0.00146484375,1.10107421875,1435.8683334589005,1435.870000123978,1.6666650774368463,-0.18310546875,2.44140625,-0.48828125
1453.4800000190735,0.0517578125,0.00146484375,1.10107421875,1435.8783334493637,1435.880000114441,1.6666650772094727,-0.18310546875,2.44140625,-0.48828125
1453.4900000095367,0.05615234375,-0.02587890625,0.955078125,1435.888333439827,1435.8900001049042,1.6666650772094727,-0.3662109375,0.48828125,-0.48828125
1453.5,0.05615234375,-0.02587890625,0.955078125,1435.8983334302902,1435.9000000953674,1.6666650772094727,-0.3662109375,0.48828125,-0.48828125
1453.5099999904633,0.02197265625,0.03173828125,1.09228515625,1435.9083334207537,1435.9100000858307,1.666665076982099,-0.3662109375,0.9765625,-0.3662109375
1453.5199999809265,0.02197265625,0.03173828125,1.09228515625,1435.9183334112167,1435.920000076294,1.6666650772094727,-0.3662109375,0.9765625,-0.3662109375
1453.5299999713898,0.046875,-0.048828125,1.03076171875,1435.92833340168,1435.9300000667572,1.6666650772094727,-0.3662109375,1.15966796875,-0.42724609375
1453.539999961853,0.046875,-0.048828125,1.03076171875,1435.9383333921432,1435.9400000572205,1.6666650772094727,-0.3662109375,1.15966796875,-0.42724609375
1453.5499999523165,0.0576171875,0.03369140625,1.07470703125,1435.9483333826067,1435.9500000476835,1.6666650767547253,-0.18310546875,1.28173828125,-0.3662109375
1453.5599999427795,0.0576171875,0.03369140625,1.07470703125,1435.9583333730698,1435.960000038147,1.6666650772094727,-0.18310546875,1.28173828125,-0.3662109375
1453.5699999332428,0.0224609375,-0.00634765625,0.9599609375,1435.968333363533,1435.9700000286102,1.6666650772094727,-0.54931640625,1.3427734375,-0.3662109375
1453.579999923706,0.0224609375,-0.00634765625,0.9599609375,1435.9783333539965,1435.9800000190735,1.666665076982099,-0.54931640625,1.3427734375,-0.3662109375
1453.5899999141693,0.06201171875,-0.04443359375,1.0888671875,1435.9883333444595,1435.9900000095367,1.6666650772094727,-0.67138671875,-0.06103515625,-0.48828125
1453.5999999046326,0.06201171875,-0.04443359375,1.0888671875,1435.9983333349228,1436.0,1.6666650772094727,-0.67138671875,-0.06103515625,-0.48828125
1453.6099998950958,0.021484375,0.04150390625,1.02490234375,1436.008333325386,1436.0099999904637,1.66666507766422,-0.1220703125,2.8076171875,-0.30517578125
1453.619999885559,0.021484375,0.04150390625,1.02490234375,1436.0183333158493,1436.0199999809265,1.6666650772094727,-0.1220703125,2.8076171875,-0.30517578125
1453.6299998760223,0.04248046875,-0.02001953125,0.98046875,1436.0283333063126,1436.0299999713898,1.6666650772094727,-0.6103515625,0.9765625,-0.42724609375
1453.6399998664856,0.04248046875,-0.02001953125,0.98046875,1436.0383332967758,1436.039999961853,1.6666650772094727,-0.6103515625,0.9765625,-0.42724609375
1453.6500000953674,0.04248046875,-0.00830078125,1.14404296875,1436.0483335256577,1436.0499999523165,1.6664266588577448,-0.30517578125,-0.244140625,-0.42724609375
1453.6600000858307,0.04248046875,-0.00830078125,1.14404296875,1436.058333516121,1436.0599999427795,1.666426658630371,-0.30517578125,-0.244140625,-0.42724609375
1453.670000076294,0.02978515625,0.01123046875,0.8935546875,1436.0683335065842,1436.0700001716614,1.6666650772094727,-0.30517578125,3.0517578125,-0.3662109375
1453.6800000667572,0.02978515625,0.01123046875,0.8935546875,1436.0783334970474,1436.0800001621246,1.6666650772094727,-0.30517578125,3.0517578125,-0.3662109375
1453.6900000572205,0.04150390625,-0.01904296875,1.07763671875,1436.088333487511,1436.090000152588,1.666665076982099,-0.3662109375,0.732421875,-0.42724609375
1453.7000000476835,0.04150390625,-0.01904296875,1.07763671875,1436.0983334779737,1436.1000001430511,1.6666650774368463,-0.3662109375,0.732421875,-0.42724609375
1453.710000038147,0.02880859375,0.005859375,1.02880859375,1436.1083334684372,1436.1100001335144,1.6666650772094727,-0.244140625,0.42724609375,-0.3662109375
1453.7200000286102,0.02880859375,0.005859375,1.02880859375,1436.1183334589005,1436.120000123978,1.6666650774368463,-0.244140625,0.42724609375,-0.3662109375
1453.7300000190735,0.0322265625,0.00048828125,0.8857421875,1436.1283334493637,1436.130000114441,1.6666650772094727,-0.244140625,1.8310546875,-0.3662109375
1453.7400000095367,0.0322265625,0.00048828125,0.8857421875,1436.138333439827,1436.1400001049042,1.6666650772094727,-0.244140625,1.8310546875,-0.3662109375
1453.75,0.03759765625,0.00439453125,1.03125,1436.1483334302902,1436.1500000953674,1.6666650772094727,0.0,2.0751953125,-0.3662109375
1453.7599999904633,0.03759765625,0.00439453125,1.03125,1436.1583334207537,1436.1600000858307,1.666665076982099,0.0,2.0751953125,-0.3662109375
1453.7699999809265,0.03759765625,-0.02001953125,1.00048828125,1436.1683334112167,1436.170000076294,1.6666650772094727,-0.30517578125,0.0,-0.42724609375
1453.7799999713898,0.03759765625,-0.02001953125,1.00048828125,1436.17833340168,1436.1800000667572,1.6666650772094727,-0.30517578125,0.0,-0.42724609375
1453.789999961853,0.0380859375,0.01025390625,0.9892578125,1436.1883333921432,1436.1900000572205,1.6666650772094727,-0.1220703125,1.64794921875,-0.42724609375
1453.7999999523165,0.0263671875,0.001953125,1.013671875,1436.1983333826067,1436.2000000476835,1.6666650767547253,-0.1220703125,1.64794921875,-0.42724609375
1453.8099999427795,0.0263671875,0.001953125,1.013671875,1436.2083333730698,1436.210000038147,1.6666650772094727,-0.18310546875,2.50244140625,-0.3662109375
1453.8199999332428,0.0595703125,-0.00927734375,1.12451171875,1436.218333363533,1436.2200000286102,1.6666650772094727,-0.18310546875,2.50244140625,-0.3662109375
1453.829999923706,0.0595703125,-0.00927734375,1.12451171875,1436.2283333539965,1436.2300000190735,1.666665076982099,-0.48828125,-1.0986328125,-0.42724609375
1453.8399999141693,0.01416015625,0.00634765625,1.0859375,1436.2383333444595,1436.2400000095367,1.6666650772094727,-0.48828125,-1.0986328125,-0.42724609375
1453.8499999046326,0.01416015625,0.00634765625,1.0859375,1436.2483333349228,1436.25,1.6666650772094727,0.0,2.197265625,-0.3662109375
1453.8599998950958,0.037109375,0.0087890625,1.009765625,1436.258333325386,1436.2599999904637,1.66666507766422,-0.48828125,-0.1220703125,-0.3662109375
1453.869999885559,0.037109375,0.0087890625,1.009765625,1436.2683333158493,1436.2699999809265,1.6666650772094727,-0.48828125,-0.1220703125,-0.3662109375
1453.8799998760223,0.0380859375,-0.02880859375,1.14013671875,1436.2783333063126,1436.2799999713898,1.6666650772094727,-0.06103515625,1.5869140625,-0.30517578125
1453.8899998664856,0.0380859375,-0.02880859375,1.14013671875,1436.2883332967758,1436.289999961853,1.6666650772094727,-0.06103515625,1.5869140625,-0.30517578125
1453.9000000953674,0.021484375,0.02197265625,1.0390625,1436.2983335256577,1436.2999999523165,1.6664266588577448,-0.244140625,0.54931640625,-0.42724609375
1453.9100000858307,0.021484375,0.02197265625,1.0390625,1436.308333516121,1436.3099999427795,1.666426658630371,-0.244140625,0.54931640625,-0.42724609375
1453.920000076294,0.02587890625,-0.00927734375,1.041015625,1436.3183335065842,1436.3200001716614,1.6666650772094727,-0.48828125,0.3662109375,-0.3662109375
1453.9300000667572,0.02587890625,-0.00927734375,1.041015625,1436.3283334970474,1436.3300001621246,1.6666650772094727,-0.48828125,0.3662109375,-0.3662109375
1453.9400000572205,0.03759765625,0.0009765625,1.02001953125,1436.338333487511,1436.340000152588,1.666665076982099,0.0,3.72314453125,-0.30517578125
1453.9500000476835,0.03759765625,0.0009765625,1.02001953125,1436.3483334779737,1436.3500001430511,1.6666650774368463,0.0,3.72314453125,-0.30517578125
1453.960000038147,0.0205078125,-0.0078125,0.9814453125,1436.3583334684372,1436.3600001335144,1.6666650772094727,-0.8544921875,-2.0751953125,-0.3662109375
1453.9700000286102,0.0205078125,-0.0078125,0.9814453125,1436.3683334589005,1436.370000123978,1.6666650774368463,-0.8544921875,-2.0751953125,-0.3662109375
1453.9800000190735,0.029296875,-0.0087890625,0.97705078125,1436.3783334493637,1436.380000114441,1.6666650772094727,0.0,2.99072265625,-0.30517578125
1453.9900000095367,0.029296875,-0.0087890625,0.97705078125,1436.388333439827,1436.3900001049042,1.6666650772094727,0.0,2.99072265625,-0.30517578125
1454.0049998760223,0.02392578125,0.0263671875,0.91357421875,1436.4033333063126,1436.4000000953674,3.3332109451293945,-0.8544921875,0.3662109375,-0.30517578125
1454.0149998664856,0.02392578125,0.0263671875,0.91357421875,1436.4133332967758,1436.4100000858307,3.3332109451293945,-0.8544921875,0.3662109375,-0.30517578125
1454.0250000953674,0.0361328125,-0.0166015625,0.90673828125,1436.4233335256577,1436.420000076294,3.333449363708496,-0.06103515625,3.41796875,-0.3662109375
1454.0350000858307,0.0361328125,-0.0166015625,0.90673828125,1436.433333516121,1436.4300000667572,3.333449363708496,-0.06103515625,3.41796875,-0.3662109375
1454.045000076294,0.0302734375,0.00537109375,1.01416015625,1436.4433335065842,1436.4400000572205,3.333449363708496,-0.8544921875,-2.0751953125,-0.244140625
1454.0550000667572,0.0302734375,0.00537109375,1.01416015625,1436.4533334970474,1436.4500000476835,3.3334493639358698,-0.8544921875,-2.0751953125,-0.244140625
1454.0650000572205,0.01953125,0.00341796875,0.970703125,1436.463333487511,1436.460000038147,3.3334493639358698,-0.8544921875,-2.0751953125,-0.244140625
1454.0750000476835,0.01953125,0.00341796875,0.970703125,1436.4733334779737,1436.4700000286102,3.3334493634811224,-0.42724609375,2.50244140625,-0.3662109375
1454.085000038147,0.03955078125,0.009765625,0.95068359375,1436.4833334684372,1436.4800000190735,3.333449363708496,-0.42724609375,2.50244140625,-0.3662109375
1454.0950000286102,0.03955078125,0.009765625,0.95068359375,1436.4933334589005,1436.4900000095367,3.333449363708496,-0.54931640625,1.953125,-0.3662109375
1454.1050000190735,0.01416015625,-0.01318359375,1.03271484375,1436.5033334493637,1436.5,3.333449363708496,-0.54931640625,1.953125,-0.3662109375
1454.1150000095367,0.01416015625,-0.01318359375,1.03271484375,1436.513333439827,1436.5099999904637,3.3334493632537487,-1.03759765625,-1.40380859375,-0.30517578125
1454.125,0.04638671875,0.02001953125,1.05029296875,1436.5233334302902,1436.5199999809265,3.333449363708496,-1.03759765625,-1.40380859375,-0.30517578125
1454.1349999904633,0.04638671875,0.02001953125,1.05029296875,1436.5333334207537,1436.5299999713898,3.3334493639358698,-0.54931640625,1.40380859375,-0.30517578125
1454.1449999809265,0.01220703125,0.00537109375,1.07275390625,1436.5433334112167,1436.539999961853,3.333449363708496,-0.54931640625,1.40380859375,-0.30517578125
1454.1549999713898,0.01220703125,0.00537109375,1.07275390625,1436.55333340168,1436.5499999523165,3.3334493634811224,-1.0986328125,0.3662109375,-0.244140625
1454.164999961853,0.04296875,0.02587890625,1.0810546875,1436.5633333921432,1436.5599999427795,3.333449363708496,-1.0986328125,0.3662109375,-0.244140625
1454.1749999523165,0.04296875,0.02587890625,1.0810546875,1436.5733333826067,1436.5700001716614,3.333210945356768,-0.732421875,0.67138671875,-0.30517578125
1454.1849999427795,0.02490234375,-0.01416015625,1.1396484375,1436.5833333730698,1436.5800001621246,3.3332109451293945,-0.732421875,0.67138671875,-0.30517578125
1454.1949999332428,0.02490234375,-0.01416015625,1.1396484375,1436.593333363533,1436.590000152588,3.3332109451293945,-1.28173828125,0.48828125,-0.30517578125
1454.204999923706,0.02783203125,0.00341796875,1.0849609375,1436.6033333539965,1436.6000001430511,3.333210945356768,-1.28173828125,0.48828125,-0.30517578125
1454.2149999141693,0.02783203125,0.00341796875,1.0849609375,1436.6133333444595,1436.6100001335144,3.3332109451293945,-1.28173828125,-1.03759765625,-0.244140625
1454.2249999046326,0.0205078125,-0.00830078125,1.0654296875,1436.6233333349228,1436.620000123978,3.333210944902021,-1.28173828125,-1.03759765625,-0.244140625
1454.2349998950958,0.0205078125,-0.00830078125,1.0654296875,1436.633333325386,1436.630000114441,3.3332109451293945,-1.40380859375,0.9765625,-0.244140625
1454.244999885559,0.03125,-0.01904296875,1.06005859375,1436.6433333158493,1436.6400001049042,3.3332109451293945,-1.40380859375,0.9765625,-0.244140625
1454.2549998760223,0.03125,-0.01904296875,1.06005859375,1436.6533333063126,1436.6500000953674,3.3332109451293945,-1.0986328125,1.89208984375,-0.30517578125
1454.2649998664856,0.009765625,0.0009765625,1.02490234375,1436.6633332967758,1436.6600000858307,3.3332109451293945,-1.0986328125,1.89208984375,-0.30517578125
1454.2750000953674,0.009765625,0.0009765625,1.02490234375,1436.6733335256577,1436.670000076294,3.333449363708496,-1.5869140625,-1.8310546875,-0.244140625
1454.2850000858307,0.029296875,-0.00537109375,0.95556640625,1436.683333516121,1436.6800000667572,3.333449363708496,-1.5869140625,-1.8310546875,-0.244140625
1454.295000076294,0.029296875,-0.00537109375,0.95556640625,1436.6933335065842,1436.6900000572205,3.333449363708496,-1.3427734375,2.38037109375,-0.244140625
1454.3050000667572,0.02490234375,0.00341796875,0.9326171875,1436.7033334970474,1436.7000000476835,3.3334493639358698,-1.3427734375,2.38037109375,-0.244140625
1454.3150000572205,0.02490234375,0.00341796875,0.9326171875,1436.713333487511,1436.710000038147,3.3334493639358698,-1.3427734375,0.244140625,-0.18310546875
1454.3250000476835,0.01806640625,-0.01904296875,0.93310546875,1436.7233334779737,1436.7200000286102,3.3334493634811224,-1.3427734375,0.244140625,-0.18310546875
1454.335000038147,0.01806640625,-0.01904296875,0.93310546875,1436.7333334684372,1436.7300000190735,3.333449363708496,-1.0986328125,1.0986328125,-0.244140625
1454.3450000286102,0.02978515625,0.00634765625,0.93994140625,1436.7433334589005,1436.7400000095367,3.333449363708496,-1.0986328125,1.0986328125,-0.244140625
1454.3550000190735,0.02978515625,0.00634765625,0.93994140625,1436.7533334493637,1436.75,3.333449363708496,-1.15966796875,0.0,-0.18310546875
1454.3650000095367,0.00830078125,-0.00244140625,0.873046875,1436.763333439827,1436.7599999904637,3.3334493632537487,-1.15966796875,0.0,-0.18310546875
1454.375,0.00830078125,-0.00244140625,0.873046875,1436.7733334302902,1436.7699999809265,3.333449363708496,-1.03759765625,0.3662109375,-0.18310546875
1454.3849999904633,0.0322265625,0.00341796875,0.955078125,1436.7833334207537,1436.7799999713898,3.3334493639358698,-1.03759765625,0.3662109375,-0.18310546875
1454.3949999809265,0.0322265625,0.00341796875,0.955078125,1436.7933334112167,1436.789999961853,3.333449363708496,-0.8544921875,1.0986328125,-0.18310546875
1454.4049999713898,0.02197265625,-0.00341796875,0.9892578125,1436.80333340168,1436.7999999523165,3.3334493634811224,-0.8544921875,1.0986328125,-0.18310546875
1454.414999961853,0.02197265625,-0.00341796875,0.9892578125,1436.8133333921432,1436.8099999427795,3.333449363708496,-0.8544921875,0.48828125,-0.1220703125
1454.4249999523165,0.02490234375,0.00048828125,0.9853515625,1436.8233333826067,1436.8200001716614,3.333210945356768,-0.8544921875,0.48828125,-0.1220703125
1454.4349999427795,0.02490234375,0.00048828125,0.9853515625,1436.8333333730698,1436.8300001621246,3.3332109451293945,-1.40380859375,-2.0751953125,-0.1220703125
1454.4449999332428,0.0263671875,-0.0029296875,1.0419921875,1436.843333363533,1436.840000152588,3.3332109451293945,-1.40380859375,-2.0751953125,-0.1220703125
1454.454999923706,0.0263671875,-0.0029296875,1.0419921875,1436.8533333539965,1436.8500001430511,3.333210945356768,-0.91552734375,1.28173828125,-0.1220703125
1454.4649999141693,0.02880859375,-0.00634765625,1.06005859375,1436.8633333444595,1436.8600001335144,3.3332109451293945,-0.91552734375,1.28173828125,-0.1220703125
1454.4749999046326,0.02880859375,-0.00634765625,1.06005859375,1436.8733333349228,1436.870000123978,3.333210944902021,-1.40380859375,0.0,-0.1220703125
1454.4849998950958,0.02099609375,-0.01904296875,1.142578125,1436.883333325386,1436.880000114441,3.3332109451293945,-1.40380859375,0.0,-0.1220703125
1454.494999885559,0.02099609375,-0.01904296875,1.142578125,1436.8933333158493,1436.8900001049042,3.3332109451293945,-1.52587890625,-1.8310546875,-0.1220703125
1454.5049998760223,0.03662109375,-0.00048828125,1.123046875,1436.9033333063126,1436.9000000953674,3.3332109451293945,-1.52587890625,-1.8310546875,-0.1220703125
1454.5149998664856,0.03662109375,-0.00048828125,1.123046875,1436.9133332967758,1436.9100000858307,3.3332109451293945,-1.64794921875,0.1220703125,-0.1220703125
1454.5250000953674,0.01611328125,0.01220703125,1.07861328125,1436.9233335256577,1436.920000076294,3.333449363708496,-1.64794921875,0.1220703125,-0.1220703125
1454.5350000858307,0.01611328125,0.01220703125,1.07861328125,1436.933333516121,1436.9300000667572,3.333449363708496,-1.77001953125,-0.54931640625,0.0
1454.545000076294,0.0302734375,-0.0263671875,1.18115234375,1436.9433335065842,1436.9400000572205,3.333449363708496,-1.77001953125,-0.54931640625,0.0
1454.5550000667572,0.0302734375,-0.0263671875,1.18115234375,1436.9533334970474,1436.9500000476835,3.3334493639358698,-1.3427734375,-0.06103515625,-0.1220703125
1454.5650000572205,0.01708984375,-0.0234375,1.0087890625,1436.963333487511,1436.960000038147,3.3334493639358698,-1.3427734375,-0.06103515625,-0.1220703125
1454.5750000476835,0.01708984375,-0.0234375,1.0087890625,1436.9733334779737,1436.9700000286102,3.3334493634811224,-1.28173828125,-0.48828125,-0.06103515625
1454.585000038147,0.01904296875,0.009765625,0.97021484375,1436.9833334684372,1436.9800000190735,3.333449363708496,-1.28173828125,-0.48828125,-0.06103515625
1454.5950000286102,0.01904296875,0.009765625,0.97021484375,1436.9933334589005,1436.9900000095367,3.333449363708496,-1.28173828125,-0.79345703125,-0.06103515625
1454.6050000190735,0.0283203125,-0.04541015625,0.96826171875,1437.0033334493637,1437.0,3.333449363708496,-1.28173828125,-0.79345703125,-0.06103515625
1454.6150000095367,0.0283203125,-0.04541015625,0.96826171875,1437.013333439827,1437.0099999904637,3.3334493632537487,-1.03759765625,1.52587890625,-0.06103515625
1454.625,0.01904296875,-0.0078125,0.9296875,1437.0233334302902,1437.0199999809265,3.333449363708496,-1.03759765625,1.52587890625,-0.06103515625
1454.6349999904633,0.01904296875,-0.0078125,0.9296875,1437.0333334207537,1437.0299999713898,3.3334493639358698,-0.79345703125,-0.48828125,-0.06103515625
1454.6449999809265,0.01318359375,-0.01025390625,0.86474609375,1437.0433334112167,1437.039999961853,3.333449363708496,-0.79345703125,-0.48828125,-0.06103515625
1454.6549999713898,0.01318359375,-0.01025390625,0.86474609375,1437.05333340168,1437.0499999523165,3.3334493634811224,-1.15966796875,-0.732421875,0.0
1454.664999961853,0.0302734375,-0.00146484375,0.84619140625,1437.0633333921432,1437.0599999427795,3.333449363708496,-1.15966796875,-0.732421875,0.0
1454.6749999523165,0.0302734375,-0.00146484375,0.84619140625,1437.0733333826067,1437.0700001716614,3.333210945356768,-0.42724609375,1.46484375,0.0
1454.6849999427795,0.02490234375,0.00341796875,0.88330078125,1437.0833333730698,1437.0800001621246,3.3332109451293945,-0.42724609375,1.46484375,0.0
1454.6949999332428,0.02490234375,0.00341796875,0.88330078125,1437.093333363533,1437.090000152588,3.3332109451293945,-0.91552734375,-0.8544921875,0.0
1454.704999923706,0.01904296875,-0.01318359375,0.90380859375,1437.1033333539965,1437.1000001430511,3.333210945356768,-0.91552734375,-0.8544921875,0.0
1454.7149999141693,0.01904296875,-0.01318359375,0.90380859375,1437.1133333444595,1437.1100001335144,3.3332109451293945,-0.42724609375,0.1220703125,0.0
1454.7249999046326,0.0263671875,0.00048828125,0.94580078125,1437.1233333349228,1437.120000123978,3.333210944902021,-0.42724609375,0.1220703125,0.0
1454.7349998950958,0.0263671875,0.00048828125,0.94580078125,1437.133333325386,1437.130000114441,3.3332109451293945,-1.0986328125,-1.953125,0.0
1454.744999885559,0.02734375,0.01123046875,0.97314453125,1437.1433333158493,1437.1400001049042,3.3332109451293945,-1.0986328125,-1.953125,0.0
1454.7549998760223,0.02734375,0.01123046875,0.97314453125,1437.1533333063126,1437.1500000953674,3.3332109451293945,-0.30517578125,0.9765625,0.0
1454.7649998664856,0.0283203125,-0.0458984375,1.0263671875,1437.1633332967758,1437.1600000858307,3.3332109451293945,-0.30517578125,0.9765625,0.0
1454.7750000953674,0.0283203125,-0.0458984375,1.0263671875,1437.1733335256577,1437.170000076294,3.333449363708496,-0.732421875,-0.6103515625,0.0
1454.7850000858307,0.02783203125,0.00634765625,1.09130859375,1437.183333516121,1437.1800000667572,3.333449363708496,-0.732421875,-0.6103515625,0.0
1454.795000076294,0.02783203125,0.00634765625,1.09130859375,1437.1933335065842,1437.1900000572205,3.333449363708496,-1.0986328125,-4.39453125,0.0
1454.8050000667572,0.02880859375,-0.033203125,1.05126953125,1437.2033334970474,1437.2000000476835,3.3334493639358698,-1.0986328125,-4.39453125,0.0
1454.8150000572205,0.02880859375,-0.033203125,1.05126953125,1437.213333487511,1437.210000038147,3.3334493639358698,-0.732421875,2.197265625,0.06103515625
1454.8250000476835,0.0400390625,-0.00048828125,1.10107421875,1437.2233334779737,1437.2200000286102,3.3334493634811224,-0.732421875,2.197265625,0.06103515625
1454.835000038147,0.0400390625,-0.00048828125,1.10107421875,1437.2333334684372,1437.2300000190735,3.333449363708496,-0.91552734375,-2.197265625,0.06103515625
1454.8450000286102,0.0185546875,-0.0439453125,1.16357421875,1437.2433334589005,1437.2400000095367,3.333449363708496,-0.91552734375,-2.197265625,0.06103515625
1454.8550000190735,0.0185546875,-0.0439453125,1.16357421875,1437.2533334493637,1437.25,3.333449363708496,-0.9765625,-1.52587890625,0.1220703125
1454.8650000095367,0.0283203125,-0.03076171875,1.06396484375,1437.263333439827,1437.2599999904637,3.3334493632537487,-0.9765625,-1.52587890625,0.1220703125
1454.875,0.0283203125,-0.03076171875,1.06396484375,1437.2733334302902,1437.2699999809265,3.333449363708496,-0.732421875,-0.244140625,0.1220703125
1454.8849999904633,0.02001953125,-0.0107421875,1.01953125,1437.2833334207537,1437.2799999713898,3.3334493639358698,-0.732421875,-0.244140625,0.1220703125
1454.8949999809265,0.02001953125,-0.0107421875,1.01953125,1437.2933334112167,1437.289999961853,3.333449363708496,-0.9765625,-1.953125,0.1220703125
1454.9049999713898,0.0322265625,-0.0478515625,0.9765625,1437.30333340168,1437.2999999523165,3.3334493634811224,-0.9765625,-1.953125,0.1220703125
1454.914999961853,0.0322265625,-0.0478515625,0.9765625,1437.3133333921432,1437.3099999427795,3.333449363708496,-0.1220703125,0.9765625,0.06103515625
1454.9249999523165,0.029296875,-0.0146484375,1.01171875,1437.3233333826067,1437.3200001716614,3.333210945356768,-0.1220703125,0.9765625,0.06103515625
1454.9349999427795,0.029296875,-0.0146484375,1.01171875,1437.3333333730698,1437.3300001621246,3.3332109451293945,-0.1220703125,-1.52587890625,0.1220703125
1454.9449999332428,0.015625,-0.0009765625,0.82177734375,1437.343333363533,1437.340000152588,3.3332109451293945,-0.1220703125,-1.52587890625,0.1220703125
1454.954999923706,0.015625,-0.0009765625,0.82177734375,1437.3533333539965,1437.3500001430511,3.333210945356768,0.0,-0.30517578125,0.1220703125
1454.9649999141693,0.02978515625,-0.01806640625,0.9150390625,1437.3633333444595,1437.3600001335144,3.3332109451293945,0.0,-0.30517578125,0.1220703125
1454.9749999046326,0.02978515625,-0.01806640625,0.9150390625,1437.3733333349228,1437.370000123978,3.333210944902021,0.3662109375,0.244140625,0.1220703125
1454.9849998950958,0.01220703125,-0.0234375,0.916015625,1437.383333325386,1437.380000114441,3.3332109451293945,0.3662109375,0.244140625,0.1220703125
1454.9900000095367,0.01220703125,-0.0234375,0.916015625,1437.388333439827,1437.3900001049042,1.6666650772094727,0.1220703125,-0.30517578125,0.18310546875
1455.0099999904633,0.02978515625,-0.00927734375,0.86669921875,1437.4083334207537,1437.4100000858307,1.666665076982099,0.1220703125,-0.30517578125,0.18310546875
1455.0199999809265,0.03662109375,-0.03369140625,0.91259765625,1437.4183334112167,1437.420000076294,1.6666650772094727,0.0,-2.197265625,0.1220703125
1455.0299999713898,0.03662109375,-0.03369140625,0.91259765625,1437.42833340168,1437.4300000667572,1.6666650772094727,0.0,-2.197265625,0.1220703125
1455.039999961853,0.03515625,-0.01123046875,0.91259765625,1437.4383333921432,1437.4400000572205,1.6666650772094727,0.06103515625,1.46484375,0.1220703125
1455.0499999523165,0.03515625,-0.01123046875,0.91259765625,1437.4483333826067,1437.4500000476835,1.6666650767547253,0.06103515625,1.46484375,0.1220703125
1455.0599999427795,0.0361328125,-0.0380859375,1.02685546875,1437.4583333730698,1437.460000038147,1.6666650772094727,0.06103515625,-1.0986328125,0.244140625
1455.0699999332428,0.0361328125,-0.0380859375,1.02685546875,1437.468333363533,1437.4700000286102,1.6666650772094727,0.06103515625,-1.0986328125,0.244140625
1455.079999923706,0.03369140625,-0.00341796875,1.0185546875,1437.4783333539965,1437.4800000190735,1.666665076982099,-0.244140625,-2.74658203125,0.244140625
1455.0899999141693,0.03369140625,-0.00341796875,1.0185546875,1437.4883333444595,1437.4900000095367,1.6666650772094727,-0.244140625,-2.74658203125,0.244140625
1455.0999999046326,0.03125,-0.02685546875,0.98974609375,1437.4983333349228,1437.5,1.6666650772094727,0.0,-0.244140625,0.244140625
1455.1099998950958,0.03125,-0.02685546875,0.98974609375,1437.508333325386,1437.5099999904637,1.66666507766422,0.0,-0.244140625,0.244140625
1455.119999885559,0.04931640625,-0.04833984375,1.08935546875,1437.5183333158493,1437.5199999809265,1.6666650772094727,-0.3662109375,-1.3427734375,0.30517578125
1455.1299998760223,0.04931640625,-0.04833984375,1.08935546875,1437.5283333063126,1437.5299999713898,1.6666650772094727,-0.3662109375,-1.3427734375,0.30517578125
1455.1399998664856,0.02490234375,-0.03857421875,1.1103515625,1437.5383332967758,1437.539999961853,1.6666650772094727,0.244140625,-0.48828125,0.18310546875
1455.1500000953674,0.02490234375,-0.03857421875,1.1103515625,1437.5483335256577,1437.5499999523165,1.6664266588577448,0.244140625,-0.48828125,0.18310546875
1455.1600000858307,0.0302734375,-0.037109375,1.0673828125,1437.558333516121,1437.5599999427795,1.666426658630371,-0.244140625,-3.173828125,0.30517578125
1455.170000076294,0.0302734375,-0.037109375,1.0673828125,1437.5683335065842,1437.5700001716614,1.6666650772094727,-0.244140625,-3.173828125,0.30517578125
1455.1800000667572,0.046875,-0.033203125,1.11767578125,1437.5783334970474,1437.5800001621246,1.6666650772094727,0.6103515625,0.91552734375,0.244140625
1455.1900000572205,0.046875,-0.033203125,1.11767578125,1437.588333487511,1437.590000152588,1.666665076982099,0.6103515625,0.91552734375,0.244140625
1455.2000000476835,0.0244140625,-0.0234375,1.07666015625,1437.5983334779737,1437.6000001430511,1.6666650774368463,0.18310546875,-2.01416015625,0.3662109375
1455.210000038147,0.0244140625,-0.0234375,1.07666015625,1437.6083334684372,1437.6100001335144,1.6666650772094727,0.18310546875,-2.01416015625,0.3662109375
1455.2200000286102,0.02978515625,-0.041015625,0.9912109375,1437.6183334589005,1437.620000123978,1.6666650774368463,0.732421875,-1.15966796875,0.30517578125
1455.2300000190735,0.02978515625,-0.041015625,0.9912109375,1437.6283334493637,1437.630000114441,1.6666650772094727,0.732421875,-1.15966796875,0.30517578125
1455.2400000095367,0.02490234375,-0.01220703125,0.94287109375,1437.638333439827,1437.6400001049042,1.6666650772094727,0.67138671875,-0.79345703125,0.30517578125
1455.25,0.02490234375,-0.01220703125,0.94287109375,1437.6483334302902,1437.6500000953674,1.6666650772094727,0.67138671875,-0.79345703125,0.30517578125
1455.2599999904633,0.03857421875,-0.04931640625,0.8916015625,1437.6583334207537,1437.6600000858307,1.666665076982099,1.03759765625,-0.91552734375,0.3662109375
1455.2699999809265,0.03857421875,-0.04931640625,0.8916015625,1437.6683334112167,1437.670000076294,1.6666650772094727,1.03759765625,-0.91552734375,0.3662109375
1455.2799999713898,0.04248046875,-0.0166015625,0.998046875,1437.67833340168,1437.6800000667572,1.6666650772094727,1.40380859375,1.3427734375,0.244140625
1455.289999961853,0.04248046875,-0.0166015625,0.998046875,1437.6883333921432,1437.6900000572205,1.6666650772094727,1.40380859375,1.3427734375,0.244140625
1455.2999999523165,0.02294921875,-0.00244140625,0.8408203125,1437.6983333826067,1437.7000000476835,1.6666650767547253,1.03759765625,-3.0517578125,0.30517578125
1455.3099999427795,0.02294921875,-0.00244140625,0.8408203125,1437.7083333730698,1437.710000038147,1.6666650772094727,1.03759765625,-3.0517578125,0.30517578125
1455.3199999332428,0.03759765625,-0.03759765625,0.89599609375,1437.718333363533,1437.7200000286102,1.6666650772094727,1.40380859375,1.52587890625,0.3662109375
1455.329999923706,0.03759765625,-0.03759765625,0.89599609375,1437.7283333539965,1437.7300000190735,1.666665076982099,1.40380859375,1.52587890625,0.3662109375
1455.3399999141693,0.0439453125,0.00146484375,1.0810546875,1437.7383333444595,1437.7400000095367,1.6666650772094727,0.8544921875,-1.220703125,0.30517578125
1455.3499999046326,0.0439453125,0.00146484375,1.0810546875,1437.7483333349228,1437.75,1.6666650772094727,0.8544921875,-1.220703125,0.30517578125
1455.3599998950958,0.03271484375,-0.06591796875,0.900390625,1437.758333325386,1437.7599999904637,1.66666507766422,1.40380859375,-1.03759765625,0.30517578125
1455.369999885559,0.03271484375,-0.06591796875,0.900390625,1437.7683333158493,1437.7699999809265,1.6666650772094727,1.40380859375,-1.03759765625,0.30517578125
1455.3799998760223,0.0576171875,0.009765625,1.08349609375,1437.7783333063126,1437.7799999713898,1.6666650772094727,1.03759765625,-0.06103515625,0.3662109375
