t,x,y,z,time_from_sync,gyro_x,gyro_y,gyro_z
39.67999982833862,-0.00341796875,-1.0205078125,0.083984375,9.0,0.0,0.0,-0.06103515625
39.68499994277954,-0.00537109375,-1.013671875,0.09033203125,9.005000114440918,0.18310546875,-0.1220703125,-0.18310546875
39.68999981880188,-0.00537109375,-1.0126953125,0.0908203125,9.009999990463257,-0.06103515625,-0.18310546875,-0.18310546875
39.6949999332428,-0.0009765625,-1.02001953125,0.0810546875,9.015000104904177,0.1220703125,0.0,0.0
39.69999980926514,-0.00634765625,-1.01318359375,0.09326171875,9.019999980926514,0.18310546875,-0.06103515625,0.0
39.704999923706055,-0.0029296875,-1.01416015625,0.08837890625,9.025000095367432,0.1220703125,-0.06103515625,-0.06103515625
39.7099997997284,-0.001953125,-1.02001953125,0.08447265625,9.029999971389778,0.1220703125,0.0,-0.06103515625
39.71499991416931,-0.0048828125,-1.017578125,0.0888671875,9.035000085830688,0.1220703125,0.0,-0.06103515625
39.71999979019165,-0.00341796875,-1.0087890625,0.09228515625,9.039999961853027,0.06103515625,0.06103515625,0.0
39.72499990463257,-0.0048828125,-1.02294921875,0.08251953125,9.045000076293944,0.0,0.06103515625,0.0
39.72999978065491,-0.00830078125,-1.0126953125,0.09619140625,9.049999952316284,0.06103515625,-0.06103515625,0.0
39.73499989509583,-0.00048828125,-1.01416015625,0.08642578125,9.05500006675721,0.06103515625,-0.06103515625,0.06103515625
39.73999977111816,-0.0029296875,-1.0205078125,0.0810546875,9.059999942779534,0.06103515625,-0.06103515625,0.0
39.74499988555908,-0.00634765625,-1.0166015625,0.0888671875,9.06500005722046,0.0,0.1220703125,0.0
39.75,-0.0048828125,-1.01806640625,0.0908203125,9.070000171661375,-0.06103515625,-0.06103515625,0.0
39.75499987602234,-0.001953125,-1.01708984375,0.08740234375,9.075000047683716,-0.18310546875,0.1220703125,0.06103515625
39.75999999046326,-0.001953125,-1.01953125,0.08251953125,9.080000162124634,0.06103515625,-0.1220703125,0.06103515625
39.7649998664856,-0.00634765625,-1.017578125,0.08642578125,9.08500003814698,0.0,0.06103515625,-0.1220703125
39.769999980926514,-0.00439453125,-1.01708984375,0.091796875,9.09000015258789,0.1220703125,0.0,-0.1220703125
39.77499985694885,-0.00244140625,-1.01806640625,0.0849609375,9.09500002861023,0.06103515625,-0.06103515625,-0.06103515625
39.77999997138977,-0.00439453125,-1.015625,0.0869140625,9.100000143051147,0.0,0.0,-0.06103515625
39.78499984741211,-0.005859375,-1.0126953125,0.0927734375,9.105000019073486,0.1220703125,0.06103515625,0.0
39.78999996185303,-0.00146484375,-1.01953125,0.08642578125,9.110000133514404,0.0,0.06103515625,-0.18310546875
39.794999837875366,-0.00439453125,-1.02001953125,0.08447265625,9.115000009536743,0.06103515625,0.06103515625,-0.18310546875
39.79999995231629,-0.00390625,-1.01171875,0.09130859375,9.120000123977668,0.18310546875,0.0,-0.1220703125
39.80499982833862,-0.00146484375,-1.01904296875,0.08203125,9.125,0.1220703125,0.06103515625,-0.18310546875
39.80999994277954,-0.00537109375,-1.017578125,0.08837890625,9.130000114440918,0.42724609375,-0.06103515625,-0.54931640625
39.81499981880188,-0.00634765625,-1.0087890625,0.09130859375,9.134999990463257,2.197265625,0.0,-0.6103515625
39.8199999332428,-0.0029296875,-1.015625,0.08447265625,9.140000104904177,1.64794921875,0.0,-0.91552734375
39.82499980926514,-0.00244140625,-1.0185546875,0.0849609375,9.144999980926514,1.5869140625,0.1220703125,-0.1220703125
39.829999923706055,-0.00537109375,-1.01318359375,0.0888671875,9.150000095367432,-1.953125,0.1220703125,1.03759765625
39.8349997997284,-0.00439453125,-1.01513671875,0.0888671875,9.154999971389778,-1.46484375,0.06103515625,0.48828125
39.83999991416931,-0.00341796875,-1.01904296875,0.083984375,9.160000085830688,0.42724609375,-0.06103515625,0.06103515625
39.84499979019165,-0.0048828125,-1.0185546875,0.08837890625,9.164999961853027,-0.79345703125,-0.18310546875,0.06103515625
39.84999990463257,-0.00341796875,-1.017578125,0.087890625,9.170000076293944,-0.732421875,0.0,0.06103515625
39.85499978065491,-0.00341796875,-1.015625,0.08642578125,9.174999952316284,-0.9765625,0.18310546875,0.48828125
39.85999989509583,-0.00341796875,-1.01806640625,0.0869140625,9.18000006675721,-0.79345703125,0.06103515625,0.48828125
39.86499977111816,-0.005859375,-1.01513671875,0.087890625,9.184999942779534,-0.42724609375,0.1220703125,0.0
39.86999988555908,-0.0048828125,-1.01611328125,0.09228515625,9.19000005722046,-0.06103515625,0.0,0.0
39.875,-0.001953125,-1.01953125,0.0859375,9.195000171661375,0.48828125,-0.06103515625,0.0
39.87999987602234,-0.0048828125,-1.015625,0.08935546875,9.200000047683716,0.3662109375,0.0,-0.06103515625
39.88499999046326,-0.005859375,-1.013671875,0.09130859375,9.205000162124634,0.0,0.06103515625,0.18310546875
39.8899998664856,-0.001953125,-1.01806640625,0.0830078125,9.21000003814698,-0.06103515625,0.0,0.30517578125
39.894999980926514,-0.00341796875,-1.0205078125,0.087890625,9.21500015258789,-0.18310546875,-0.1220703125,0.1220703125
39.89999985694885,-0.00732421875,-1.01123046875,0.09228515625,9.22000002861023,-0.244140625,0.0,-0.06103515625
39.90499997138977,-0.0009765625,-1.017578125,0.0849609375,9.225000143051147,-0.18310546875,0.0,0.0
39.90999984741211,-0.001953125,-1.02197265625,0.08349609375,9.230000019073486,0.0,0.0,0.1220703125
39.91499996185303,-0.00537109375,-1.01416015625,0.09326171875,9.235000133514404,-0.1220703125,0.1220703125,0.0
39.919999837875366,-0.00244140625,-1.01416015625,0.08935546875,9.240000009536743,-0.06103515625,0.0,0.0
39.92499995231629,-0.00537109375,-1.02197265625,0.08642578125,9.245000123977668,0.0,0.0,0.0
39.92999982833862,-0.00537109375,-1.01220703125,0.08935546875,9.25,0.0,0.06103515625,0.06103515625
39.93499994277954,-0.00244140625,-1.01611328125,0.08935546875,9.255000114440918,-0.06103515625,0.06103515625,-0.06103515625
39.93999981880188,-0.0029296875,-1.01806640625,0.0849609375,9.259999990463257,-0.06103515625,0.0,0.0
39.9449999332428,-0.0048828125,-1.01611328125,0.08984375,9.265000104904177,-0.06103515625,0.06103515625,0.0
39.94999980926514,-0.00341796875,-1.0126953125,0.08740234375,9.269999980926514,-0.06103515625,-0.1220703125,0.0
39.954999923706055,-0.0029296875,-1.017578125,0.083984375,9.275000095367432,-0.06103515625,0.0,0.06103515625
39.9599997997284,-0.00439453125,-1.01953125,0.0888671875,9.279999971389778,0.06103515625,0.0,0.0
39.96499991416931,-0.0068359375,-1.01611328125,0.08642578125,9.285000085830688,0.0,-0.06103515625,0.0
39.96999979019165,-0.00439453125,-1.013671875,0.0859375,9.289999961853027,0.18310546875,0.0,0.0
39.97499990463257,-0.00146484375,-1.01953125,0.08642578125,9.295000076293944,0.0,0.0,0.0
39.97999978065491,-0.005859375,-1.017578125,0.08935546875,9.299999952316284,-0.06103515625,0.0,0.0
39.98499989509583,-0.0048828125,-1.015625,0.08984375,9.30500006675721,0.0,0.0,0.06103515625
39.98999977111816,-0.00244140625,-1.013671875,0.0859375,9.309999942779534,-0.06103515625,-0.06103515625,0.0
39.99499988555908,-0.00390625,-1.01904296875,0.0859375,9.31500005722046,-0.06103515625,-0.18310546875,0.06103515625
40.0,-0.0029296875,-1.01318359375,0.087890625,9.320000171661375,0.0,0.06103515625,0.0
40.00499987602234,-0.001953125,-1.021484375,0.08447265625,9.325000047683716,0.0,0.0,-0.06103515625
40.00999999046326,-0.00439453125,-1.0185546875,0.08935546875,9.330000162124634,0.0,-0.1220703125,-0.06103515625
40.0149998664856,-0.00439453125,-1.0107421875,0.09033203125,9.33500003814698,0.06103515625,-0.06103515625,-0.06103515625
40.019999980926514,-0.0009765625,-1.0166015625,0.08544921875,9.34000015258789,0.1220703125,0.0,-0.06103515625
40.02499985694885,-0.00439453125,-1.01806640625,0.08544921875,9.34500002861023,0.1220703125,0.0,-0.06103515625
40.02999997138977,-0.00830078125,-1.017578125,0.09228515625,9.350000143051147,0.1220703125,0.0,-0.06103515625
40.03499984741211,-0.00146484375,-1.01611328125,0.0849609375,9.355000019073486,0.1220703125,0.0,0.0
40.03999996185303,-0.0029296875,-1.01806640625,0.0869140625,9.360000133514404,0.0,0.06103515625,0.0
40.044999837875366,-0.005859375,-1.01611328125,0.0888671875,9.365000009536743,0.0,0.0,0.0
40.04999995231629,-0.00244140625,-1.01611328125,0.08544921875,9.370000123977668,0.0,0.0,0.0
40.05499982833862,-0.0029296875,-1.01904296875,0.08984375,9.375,-0.06103515625,0.06103515625,0.0
40.05999994277954,-0.0029296875,-1.0166015625,0.08740234375,9.380000114440918,0.06103515625,0.06103515625,0.06103515625
40.06499981880188,-0.0029296875,-1.01611328125,0.08837890625,9.384999990463257,-0.06103515625,0.0,0.0
40.0699999332428,-0.00439453125,-1.01708984375,0.08740234375,9.390000104904177,0.0,0.0,-0.06103515625
40.07499980926514,-0.00244140625,-1.01904296875,0.08544921875,9.394999980926514,0.06103515625,0.1220703125,0.06103515625
40.079999923706055,-0.00341796875,-1.01806640625,0.08935546875,9.400000095367432,-0.06103515625,0.0,-0.1220703125
40.0849997997284,-0.00341796875,-1.015625,0.08642578125,9.404999971389778,0.0,0.0,0.0
40.08999991416931,-0.0048828125,-1.01318359375,0.08642578125,9.410000085830688,0.06103515625,0.0,0.0
40.09499979019165,-0.00341796875,-1.017578125,0.087890625,9.414999961853027,0.06103515625,0.0,-0.06103515625
40.09999990463257,-0.00439453125,-1.01318359375,0.087890625,9.420000076293944,0.0,-0.06103515625,-0.06103515625
40.10499978065491,-0.00390625,-1.01708984375,0.0869140625,9.424999952316284,0.06103515625,-0.06103515625,-0.06103515625
40.10999989509583,-0.00048828125,-1.017578125,0.08837890625,9.43000006675721,0.0,0.1220703125,-0.06103515625
40.11499977111816,-0.00439453125,-1.0166015625,0.08984375,9.434999942779534,0.1220703125,0.0,-0.06103515625
40.11999988555908,-0.0048828125,-1.0146484375,0.087890625,9.44000005722046,0.0,0.06103515625,0.0
40.125,-0.00146484375,-1.01953125,0.0849609375,9.445000171661375,0.0,0.0,0.0
40.12999987602234,-0.00341796875,-1.0185546875,0.0908203125,9.450000047683716,0.0,0.0,-0.06103515625
40.13499999046326,-0.001953125,-1.01416015625,0.08740234375,9.455000162124634,0.0,-0.06103515625,0.06103515625
40.1399998664856,-0.00146484375,-1.01611328125,0.08642578125,9.46000003814698,0.06103515625,0.0,0.0
40.144999980926514,-0.0048828125,-1.0185546875,0.0888671875,9.46500015258789,0.0,-0.1220703125,0.0
40.14999985694885,-0.00244140625,-1.0166015625,0.0859375,9.47000002861023,0.0,0.0,-0.1220703125
40.15499997138977,-0.0048828125,-1.01513671875,0.0859375,9.475000143051147,-0.06103515625,0.06103515625,0.0
40.15999984741211,-0.00439453125,-1.01513671875,0.08642578125,9.480000019073486,0.0,0.06103515625,0.0
40.16499996185303,-0.0048828125,-1.0166015625,0.0869140625,9.485000133514404,0.0,0.0,0.0
40.169999837875366,-0.001953125,-1.0166015625,0.08642578125,9.490000009536743,0.0,0.06103515625,0.0
40.17499995231629,-0.00244140625,-1.01416015625,0.08837890625,9.495000123977668,0.1220703125,0.1220703125,-0.06103515625
40.17999982833862,-0.00146484375,-1.017578125,0.08642578125,9.5,0.0,-0.1220703125,-0.06103515625
40.18499994277954,-0.00341796875,-1.01611328125,0.08447265625,9.505000114440918,0.1220703125,0.06103515625,-0.06103515625
40.18999981880188,-0.00537109375,-1.0166015625,0.09033203125,9.509999990463257,0.06103515625,0.0,0.0
40.1949999332428,-0.00244140625,-1.01708984375,0.08984375,9.515000104904177,-0.06103515625,0.0,0.0
40.19999980926514,-0.00390625,-1.01416015625,0.0859375,9.519999980926514,0.06103515625,0.0,0.0
40.204999923706055,-0.00341796875,-1.013671875,0.08740234375,9.525000095367432,0.06103515625,0.0,0.06103515625
40.2099997997284,-0.00244140625,-1.0166015625,0.08642578125,9.529999971389778,0.0,-0.06103515625,0.0
40.21499991416931,-0.00244140625,-1.01904296875,0.08544921875,9.535000085830688,0.0,0.0,0.0
40.21999979019165,-0.0029296875,-1.01611328125,0.08935546875,9.539999961853027,0.0,-0.06103515625,-0.06103515625
40.22499990463257,-0.00439453125,-1.015625,0.08447265625,9.545000076293944,0.0,0.06103515625,0.0
40.22999978065491,-0.0048828125,-1.015625,0.08837890625,9.549999952316284,0.0,0.0,0.0
40.23499989509583,-0.00390625,-1.01513671875,0.0859375,9.55500006675721,0.06103515625,-0.1220703125,0.0
40.23999977111816,-0.00244140625,-1.01708984375,0.08837890625,9.559999942779534,0.0,0.0,-0.1220703125
40.24499988555908,-0.00244140625,-1.01904296875,0.08837890625,9.56500005722046,0.0,-0.1220703125,-0.06103515625
40.25,-0.00439453125,-1.015625,0.087890625,9.570000171661375,0.0,0.0,0.06103515625
40.25499987602234,-0.00439453125,-1.01416015625,0.08740234375,9.575000047683716,0.0,0.0,0.0
40.25999999046326,-0.00244140625,-1.01611328125,0.087890625,9.580000162124634,0.0,0.0,0.0
40.2649998664856,-0.0048828125,-1.017578125,0.08935546875,9.58500003814698,0.06103515625,0.0,0.0
40.269999980926514,-0.00537109375,-1.01513671875,0.08740234375,9.59000015258789,0.0,0.0,-0.06103515625
40.27499985694885,-0.0009765625,-1.01513671875,0.08984375,9.59500002861023,0.0,0.0,0.0
40.27999997138977,-0.0029296875,-1.017578125,0.087890625,9.600000143051147,0.0,0.06103515625,0.0
40.28499984741211,-0.00244140625,-1.01611328125,0.0859375,9.605000019073486,0.06103515625,0.0,-0.06103515625
40.28999996185303,-0.00439453125,-1.01318359375,0.08642578125,9.610000133514404,0.0,0.0,0.0
40.294999837875366,-0.00341796875,-1.01708984375,0.08837890625,9.615000009536743,0.06103515625,-0.06103515625,-0.1220703125
40.29999995231629,-0.00244140625,-1.01708984375,0.08349609375,9.620000123977668,0.06103515625,0.1220703125,-0.06103515625
40.30499982833862,-0.0068359375,-1.013671875,0.0859375,9.625,0.06103515625,0.0,0.06103515625
40.30999994277954,-0.00537109375,-1.01318359375,0.08837890625,9.630000114440918,0.0,0.0,0.0
40.31499981880188,-0.0009765625,-1.0205078125,0.08642578125,9.634999990463257,0.06103515625,0.0,-0.18310546875
40.3199999332428,-0.00439453125,-1.0185546875,0.0869140625,9.640000104904177,0.0,-0.1220703125,-0.06103515625
40.32499980926514,-0.00439453125,-1.0126953125,0.08984375,9.644999980926514,0.0,0.0,0.0
40.329999923706055,-0.00390625,-1.01611328125,0.087890625,9.650000095367432,0.0,-0.18310546875,0.0
40.3349997997284,-0.00439453125,-1.02001953125,0.083984375,9.654999971389778,0.0,-0.06103515625,-0.06103515625
40.33999991416931,-0.00244140625,-1.01513671875,0.0869140625,9.660000085830688,0.0,-0.06103515625,0.0
40.34499979019165,-0.00341796875,-1.017578125,0.08837890625,9.664999961853027,0.0,0.0,0.0
40.34999990463257,-0.00439453125,-1.01611328125,0.083984375,9.670000076293944,-0.06103515625,0.0,0.0
40.35499978065491,-0.00439453125,-1.015625,0.0869140625,9.674999952316284,0.0,0.0,-0.1220703125
40.35999989509583,-0.001953125,-1.01806640625,0.08984375,9.68000006675721,0.1220703125,0.0,0.0
40.36499977111816,-0.00390625,-1.0146484375,0.087890625,9.684999942779534,0.1220703125,0.0,-0.1220703125
40.36999988555908,-0.00244140625,-1.01513671875,0.0859375,9.69000005722046,0.0,-0.06103515625,0.0
40.375,-0.00439453125,-1.0146484375,0.0869140625,9.695000171661375,0.0,0.1220703125,-0.1220703125
40.37999987602234,-0.00439453125,-1.01806640625,0.08740234375,9.700000047683716,0.1220703125,0.0,0.0
40.38499999046326,-0.00244140625,-1.01953125,0.0869140625,9.705000162124634,0.1220703125,0.0,0.0
40.3899998664856,-0.005859375,-1.01171875,0.0849609375,9.71000003814698,0.06103515625,0.06103515625,0.0
40.394999980926514,-0.00146484375,-1.0146484375,0.087890625,9.71500015258789,-0.1220703125,0.06103515625,0.0
40.39999985694885,-0.00244140625,-1.01904296875,0.08544921875,9.72000002861023,0.06103515625,0.18310546875,0.0
40.40499997138977,-0.00537109375,-1.015625,0.0859375,9.725000143051147,0.06103515625,0.0,0.0
40.40999984741211,-0.00341796875,-1.01513671875,0.087890625,9.730000019073486,0.06103515625,0.06103515625,0.0
40.41499996185303,-0.00390625,-1.021484375,0.08642578125,9.735000133514404,0.0,-0.06103515625,0.0
40.419999837875366,-0.00537109375,-1.013671875,0.0859375,9.740000009536743,0.0,0.0,0.0
40.42499995231629,-0.001953125,-1.01513671875,0.0888671875,9.745000123977668,0.06103515625,0.0,0.0
40.42999982833862,-0.00244140625,-1.02197265625,0.08837890625,9.75,0.0,0.06103515625,0.0
40.43499994277954,-0.0048828125,-1.01513671875,0.0869140625,9.755000114440918,0.0,0.0,0.0
40.43999981880188,-0.00537109375,-1.01123046875,0.08544921875,9.759999990463257,-0.06103515625,-0.1220703125,0.0
40.4449999332428,-0.001953125,-1.0185546875,0.08740234375,9.765000104904177,0.0,0.06103515625,0.0
40.44999980926514,-0.00537109375,-1.0205078125,0.0859375,9.769999980926514,0.0,-0.1220703125,0.0
40.454999923706055,-0.0048828125,-1.0146484375,0.08447265625,9.775000095367432,-0.06103515625,0.06103515625,0.0
40.4599997997284,-0.00390625,-1.0146484375,0.087890625,9.779999971389778,0.0,-0.1220703125,0.0
40.46499991416931,-0.00390625,-1.0205078125,0.087890625,9.785000085830688,-0.06103515625,0.0,0.0
40.46999979019165,-0.0048828125,-1.01806640625,0.08544921875,9.789999961853027,0.0,-0.06103515625,0.0
40.47499990463257,-0.00439453125,-1.0126953125,0.08984375,9.795000076293944,0.0,-0.1220703125,0.0
40.47999978065491,-0.00390625,-1.02197265625,0.0869140625,9.799999952316284,0.0,0.0,0.0
40.48499989509583,-0.0029296875,-1.0205078125,0.08642578125,9.80500006675721,0.0,0.0,0.0
40.48999977111816,-0.00537109375,-1.00830078125,0.08837890625,9.809999942779534,0.0,0.06103515625,0.0
40.49499988555908,-0.00146484375,-1.015625,0.08447265625,9.81500005722046,0.0,0.0,0.0
40.5,-0.005859375,-1.01708984375,0.08984375,9.820000171661375,0.0,0.0,0.0
40.50499987602234,-0.00341796875,-1.00830078125,0.08984375,9.825000047683716,0.0,0.0,0.0
40.50999999046326,0.00048828125,-1.02099609375,0.08642578125,9.830000162124634,0.0,0.0,0.0
40.5149998664856,-0.00244140625,-1.02392578125,0.0859375,9.83500003814698,0.0,0.0,0.0
40.519999980926514,-0.00634765625,-1.0107421875,0.09130859375,9.84000015258789,0.0,0.06103515625,0.0
40.52499985694885,-0.0029296875,-1.00927734375,0.0869140625,9.84500002861023,0.18310546875,-0.1220703125,0.0
40.52999997138977,-0.0009765625,-1.0234375,0.0830078125,9.850000143051147,0.1220703125,0.0,0.0
40.53499984741211,-0.00537109375,-1.01904296875,0.08935546875,9.855000019073486,0.06103515625,0.0,0.0
40.53999996185303,-0.00341796875,-1.01025390625,0.0869140625,9.860000133514404,0.0,0.0,0.0
40.544999837875366,-0.00048828125,-1.01708984375,0.08544921875,9.865000009536743,0.06103515625,0.0,0.0
40.54999995231629,-0.00732421875,-1.01611328125,0.087890625,9.870000123977668,0.06103515625,0.0,0.0
40.55499982833862,-0.00439453125,-1.013671875,0.08447265625,9.875,0.1220703125,0.0,0.0
40.55999994277954,-0.00341796875,-1.01953125,0.08837890625,9.880000114440918,0.244140625,-0.1220703125,0.0
40.56499981880188,-0.0029296875,-1.0205078125,0.08642578125,9.884999990463257,0.06103515625,0.0,0.0
40.5699999332428,-0.0048828125,-1.013671875,0.0869140625,9.890000104904177,0.06103515625,0.0,0.0
40.57499980926514,-0.0009765625,-1.02001953125,0.08740234375,9.894999980926514,0.244140625,0.0,0.0
40.579999923706055,-0.00244140625,-1.0224609375,0.08544921875,9.900000095367432,0.06103515625,0.0,0.0
40.5849997997284,-0.00732421875,-1.0126953125,0.08935546875,9.904999971389778,0.1220703125,0.0,0.0
40.58999991416931,-0.00146484375,-1.009765625,0.08837890625,9.910000085830688,0.0,0.0,0.0
40.59499979019165,0.00048828125,-1.021484375,0.08447265625,9.914999961853027,0.06103515625,0.06103515625,0.0
40.59999990463257,-0.0048828125,-1.02197265625,0.08837890625,9.920000076293944,0.0,0.0,0.0
40.60499978065491,-0.00732421875,-1.0078125,0.0927734375,9.924999952316284,0.1220703125,0.0,0.0
40.60999989509583,-0.001953125,-1.01708984375,0.08447265625,9.93000006675721,0.0,0.0,0.0
40.61499977111816,-0.00439453125,-1.02392578125,0.0830078125,9.934999942779534,0.0,0.0,0.0
40.61999988555908,-0.0068359375,-1.005859375,0.09326171875,9.94000005722046,0.1220703125,0.0,0.0
40.625,-0.00048828125,-1.015625,0.083984375,9.945000171661375,0.18310546875,0.1220703125,0.0
40.62999987602234,-0.00244140625,-1.0263671875,0.08349609375,9.950000047683716,0.1220703125,0.06103515625,0.0
40.63499999046326,-0.00830078125,-1.01123046875,0.09228515625,9.955000162124634,0.18310546875,0.0,0.0
40.6399998664856,-0.00244140625,-1.01171875,0.0849609375,9.96000003814698,0.18310546875,0.0,0.0
40.644999980926514,-0.001953125,-1.02587890625,0.08154296875,9.96500015258789,0.18310546875,-0.06103515625,0.0
40.64999985694885,-0.01025390625,-1.01123046875,0.0947265625,9.97000002861023,0.18310546875,0.0,0.0
40.65499997138977,0.0,-1.01123046875,0.0859375,9.975000143051147,0.06103515625,0.0,0.0
40.65999984741211,-0.00048828125,-1.02001953125,0.0859375,9.980000019073486,0.1220703125,0.0,0.0
40.66499996185303,-0.00439453125,-1.015625,0.09130859375,9.985000133514404,0.1220703125,0.06103515625,0.0
40.669999837875366,-0.00390625,-1.009765625,0.0869140625,9.990000009536743,0.18310546875,0.0,0.0
40.67499995231629,-0.001953125,-1.01904296875,0.08544921875,9.995000123977668,0.18310546875,-0.1220703125,0.0
40.67999982833862,-0.00244140625,-1.02197265625,0.08642578125,10.0,0.18310546875,0.0,0.0
40.68499994277954,-0.0068359375,-1.013671875,0.0927734375,10.005000114440918,0.1220703125,0.0,0.0
40.68999981880188,-0.00732421875,-1.0107421875,0.08544921875,10.009999990463257,0.42724609375,0.0,0.0
40.6949999332428,-0.00244140625,-1.01953125,0.0859375,10.015000104904177,0.3662109375,0.0,0.0
40.69999980926514,-0.00439453125,-1.015625,0.08935546875,10.019999980926514,0.42724609375,-0.06103515625,-0.30517578125
40.704999923706055,-0.005859375,-1.01025390625,0.08447265625,10.025000095367432,0.6103515625,0.0,-0.3662109375
40.7099997997284,-0.0009765625,-1.02197265625,0.0830078125,10.029999971389778,0.67138671875,-0.06103515625,-0.42724609375
40.71499991416931,-0.0048828125,-1.0166015625,0.08740234375,10.035000085830688,0.6103515625,0.0,-0.3662109375
40.71999979019165,-0.0107421875,-1.00927734375,0.0927734375,10.039999961853027,0.54931640625,0.06103515625,-0.3662109375
40.72499990463257,0.0,-1.01611328125,0.08203125,10.045000076293944,0.54931640625,0.0,-0.244140625
40.72999978065491,-0.00244140625,-1.025390625,0.08251953125,10.049999952316284,0.42724609375,0.0,-0.30517578125
40.73499989509583,-0.00830078125,-1.01708984375,0.0908203125,10.05500006675721,0.18310546875,-0.1220703125,-0.18310546875
40.73999977111816,-0.00439453125,-1.0126953125,0.087890625,10.059999942779534,0.1220703125,0.0,-0.06103515625
40.74499988555908,-0.00048828125,-1.02099609375,0.080078125,10.06500005722046,-0.06103515625,0.0,0.0
40.75,-0.0087890625,-1.01416015625,0.09375,10.070000171661375,-0.1220703125,0.0,0.06103515625
40.75499987602234,-0.00537109375,-1.01025390625,0.08642578125,10.075000047683716,-0.18310546875,-0.1220703125,0.06103515625
40.75999999046326,0.0,-1.0185546875,0.08203125,10.080000162124634,-0.3662109375,0.1220703125,0.06103515625
40.7649998664856,-0.00634765625,-1.01953125,0.09033203125,10.08500003814698,-0.30517578125,0.06103515625,0.18310546875
40.769999980926514,-0.005859375,-1.01318359375,0.09228515625,10.09000015258789,-0.244140625,0.06103515625,0.0
40.77499985694885,-0.00048828125,-1.0185546875,0.0849609375,10.09500002861023,-0.3662109375,0.0,0.06103515625
40.77999997138977,-0.00537109375,-1.02001953125,0.0888671875,10.100000143051147,-0.3662109375,0.06103515625,0.06103515625
40.78499984741211,-0.00732421875,-1.01220703125,0.09033203125,10.105000019073486,-0.18310546875,0.06103515625,0.06103515625
40.78999996185303,-0.0029296875,-1.01220703125,0.08349609375,10.110000133514404,-0.1220703125,0.1220703125,0.0
40.794999837875366,0.0,-1.01904296875,0.0849609375,10.115000009536743,-0.06103515625,0.0,0.0
40.79999995231629,-0.0048828125,-1.0166015625,0.08984375,10.120000123977668,0.0,0.0,-0.06103515625
40.80499982833862,-0.00439453125,-1.01318359375,0.0869140625,10.125,0.0,0.0,-0.06103515625
40.80999994277954,-0.0029296875,-1.017578125,0.0830078125,10.130000114440918,0.0,0.06103515625,-0.06103515625
40.81499981880188,-0.005859375,-1.02197265625,0.0869140625,10.134999990463257,0.0,-0.06103515625,-0.06103515625
40.8199999332428,-0.00732421875,-1.0146484375,0.0908203125,10.140000104904177,0.06103515625,0.0,0.0
40.82499980926514,-0.0029296875,-1.01904296875,0.08447265625,10.144999980926514,0.1220703125,0.0,-0.06103515625
40.829999923706055,-0.00244140625,-1.021484375,0.0859375,10.150000095367432,0.0,0.0,-0.1220703125
40.8349997997284,-0.00732421875,-1.01513671875,0.0908203125,10.154999971389778,0.1220703125,-0.1220703125,-0.06103515625
40.83999991416931,-0.0029296875,-1.013671875,0.08447265625,10.160000085830688,0.06103515625,0.0,-0.1220703125
40.84499979019165,-0.00244140625,-1.01904296875,0.083984375,10.164999961853027,0.06103515625,0.0,-0.1220703125
40.84999990463257,-0.00732421875,-1.01318359375,0.0908203125,10.170000076293944,0.06103515625,0.1220703125,0.0
40.85499978065491,-0.00244140625,-1.015625,0.08349609375,10.174999952316284,0.0,0.0,-0.1220703125
40.85999989509583,0.0,-1.01806640625,0.083984375,10.18000006675721,0.0,-0.06103515625,0.0
40.86499977111816,-0.005859375,-1.015625,0.0888671875,10.184999942779534,0.0,0.0,-0.1220703125
40.86999988555908,-0.00439453125,-1.01318359375,0.08740234375,10.19000005722046,0.06103515625,0.06103515625,0.06103515625
40.875,-0.001953125,-1.01611328125,0.083984375,10.195000171661375,0.06103515625,0.06103515625,0.06103515625
40.87999987602234,-0.005859375,-1.01904296875,0.08740234375,10.200000047683716,0.1220703125,0.0,-0.06103515625
40.88499999046326,-0.0048828125,-1.0146484375,0.08935546875,10.205000162124634,0.1220703125,0.0,-0.1220703125
40.8899998664856,-0.00390625,-1.01123046875,0.08544921875,10.21000003814698,0.1220703125,0.0,-0.06103515625
40.894999980926514,-0.001953125,-1.02001953125,0.08447265625,10.21500015258789,0.1220703125,-0.1220703125,-0.18310546875
40.89999985694885,-0.0048828125,-1.01611328125,0.08984375,10.22000002861023,0.18310546875,0.0,0.0
40.90499997138977,-0.0048828125,-1.013671875,0.08544921875,10.225000143051147,0.0,0.1220703125,0.0
40.90999984741211,-0.00244140625,-1.02197265625,0.08544921875,10.230000019073486,0.06103515625,0.0,-0.1220703125
40.91499996185303,-0.0048828125,-1.021484375,0.0888671875,10.235000133514404,0.0,0.0,0.0
40.919999837875366,-0.0048828125,-1.01025390625,0.09228515625,10.240000009536743,0.0,-0.1220703125,0.06103515625
40.92499995231629,-0.0009765625,-1.02197265625,0.0810546875,10.245000123977668,0.0,0.1220703125,0.0
40.92999982833862,-0.005859375,-1.021484375,0.08984375,10.25,0.0,0.06103515625,0.06103515625
40.93499994277954,-0.00537109375,-1.01025390625,0.0908203125,10.255000114440918,0.1220703125,0.0,-0.06103515625
40.93999981880188,-0.00146484375,-1.01220703125,0.08544921875,10.259999990463257,0.0,0.0,-0.06103515625
40.9449999332428,-0.0009765625,-1.0244140625,0.08349609375,10.265000104904177,0.06103515625,0.0,0.0
40.94999980926514,-0.00830078125,-1.01416015625,0.09228515625,10.269999980926514,0.0,0.0,-0.06103515625
40.954999923706055,-0.00634765625,-1.009765625,0.087890625,10.275000095367432,0.06103515625,0.06103515625,0.0
40.9599997997284,0.0,-1.0166015625,0.08349609375,10.279999971389778,0.0,0.0,0.0
40.96499991416931,-0.00390625,-1.02392578125,0.0859375,10.285000085830688,0.1220703125,0.06103515625,0.06103515625
40.96999979019165,-0.00732421875,-1.0078125,0.09130859375,10.289999961853027,0.1220703125,0.0,-0.06103515625
40.97499990463257,-0.00048828125,-1.01953125,0.08349609375,10.295000076293944,0.1220703125,-0.06103515625,-0.06103515625
40.97999978065491,-0.00390625,-1.02099609375,0.0888671875,10.299999952316284,0.06103515625,0.0,0.0
40.98499989509583,-0.00830078125,-1.01025390625,0.0927734375,10.30500006675721,0.0,0.06103515625,0.0
40.98999977111816,-0.001953125,-1.01318359375,0.08251953125,10.309999942779534,0.0,0.06103515625,0.0
40.99499988555908,-0.0009765625,-1.02685546875,0.0810546875,10.31500005722046,0.06103515625,0.0,0.0
41.0,-0.0087890625,-1.01171875,0.09130859375,10.320000171661375,0.06103515625,0.06103515625,0.0
41.00499987602234,-0.001953125,-1.009765625,0.0869140625,10.325000047683716,0.1220703125,-0.06103515625,0.0
41.00999999046326,0.00048828125,-1.02685546875,0.08056640625,10.330000162124634,0.0,0.0,0.0
41.0149998664856,-0.00732421875,-1.01806640625,0.09375,10.33500003814698,0.0,0.0,0.0
41.019999980926514,-0.0029296875,-1.005859375,0.09033203125,10.34000015258789,0.0,-0.06103515625,-0.1220703125
41.02499985694885,0.0009765625,-1.02099609375,0.080078125,10.34500002861023,0.0,0.0,0.0
41.02999997138977,-0.0068359375,-1.01953125,0.08935546875,10.350000143051147,-0.06103515625,0.0,0.0
41.03499984741211,-0.0078125,-1.00634765625,0.091796875,10.355000019073486,0.0,-0.06103515625,0.1220703125
41.03999996185303,-0.001953125,-1.0166015625,0.08203125,10.360000133514404,-0.1220703125,-0.06103515625,0.06103515625
41.044999837875366,-0.0009765625,-1.0244140625,0.083984375,10.365000009536743,-0.1220703125,0.06103515625,0.1220703125
41.04999995231629,-0.0078125,-1.00537109375,0.09033203125,10.370000123977668,-0.06103515625,0.0,0.0
41.05499982833862,-0.00048828125,-1.0146484375,0.08203125,10.375,-0.1220703125,0.0,0.1220703125
41.05999994277954,-0.00048828125,-1.02490234375,0.0849609375,10.380000114440918,-0.1220703125,0.0,0.18310546875
41.06499981880188,-0.00732421875,-1.01123046875,0.0947265625,10.384999990463257,-0.244140625,0.0,0.18310546875
41.0699999332428,-0.0048828125,-1.0078125,0.08837890625,10.390000104904177,-0.244140625,0.18310546875,0.1220703125
41.07499980926514,0.0009765625,-1.0263671875,0.08203125,10.394999980926514,-0.30517578125,0.0,0.18310546875
41.079999923706055,-0.00537109375,-1.0234375,0.09130859375,10.400000095367432,-0.30517578125,0.06103515625,0.244140625
41.0849997997284,-0.0087890625,-1.005859375,0.09423828125,10.404999971389778,-0.30517578125,0.0,0.244140625
41.08999991416931,-0.00048828125,-1.0166015625,0.0791015625,10.410000085830688,-0.3662109375,0.0,0.244140625
41.09499979019165,0.0,-1.0283203125,0.07861328125,10.414999961853027,-0.3662109375,0.0,0.30517578125
41.09999990463257,-0.00830078125,-1.00830078125,0.09619140625,10.420000076293944,-0.42724609375,0.18310546875,0.3662109375
41.10499978065491,-0.001953125,-1.01123046875,0.0830078125,10.424999952316284,-0.54931640625,0.244140625,0.42724609375
41.10999989509583,0.0,-1.0263671875,0.08154296875,10.43000006675721,-0.6103515625,0.18310546875,0.30517578125
41.11499977111816,-0.00927734375,-1.0107421875,0.095703125,10.434999942779534,-0.67138671875,0.244140625,0.3662109375
41.11999988555908,-0.00244140625,-1.009765625,0.08837890625,10.44000005722046,-0.8544921875,0.06103515625,0.48828125
41.125,0.0,-1.0263671875,0.0810546875,10.445000171661375,-0.67138671875,0.18310546875,0.3662109375
41.12999987602234,-0.009765625,-1.00732421875,0.09716796875,10.450000047683716,-0.79345703125,0.244140625,0.6103515625
41.13499999046326,-0.00244140625,-1.01025390625,0.0849609375,10.455000162124634,-0.8544921875,0.1220703125,0.54931640625
41.1399998664856,0.0,-1.02490234375,0.080078125,10.46000003814698,-0.9765625,0.0,0.54931640625
41.144999980926514,-0.0078125,-1.01708984375,0.09423828125,10.46500015258789,-1.0986328125,0.3662109375,0.732421875
41.14999985694885,-0.00341796875,-1.0078125,0.08837890625,10.47000002861023,-0.67138671875,0.244140625,0.67138671875
41.15499997138977,-0.00048828125,-1.017578125,0.0791015625,10.475000143051147,-0.9765625,0.18310546875,1.28173828125
41.15999984741211,-0.00146484375,-1.02392578125,0.0849609375,10.480000019073486,1.03759765625,-0.1220703125,1.0986328125
41.16499996185303,-0.00927734375,-1.0107421875,0.09375,10.485000133514404,-0.54931640625,0.0,0.30517578125
41.169999837875366,-0.005859375,-1.009765625,0.08642578125,10.490000009536743,0.30517578125,0.1220703125,0.30517578125
41.17499995231629,-0.00341796875,-1.02490234375,0.08447265625,10.495000123977668,-0.54931640625,0.0,0.30517578125
41.17999982833862,-0.0078125,-1.01220703125,0.09375,10.5,0.30517578125,0.06103515625,0.3662109375
41.18499994277954,-0.00244140625,-1.0126953125,0.08837890625,10.505000114440918,-0.244140625,-0.1220703125,0.0
41.18999981880188,0.0,-1.0224609375,0.07958984375,10.509999990463257,0.0,0.0,-0.18310546875
41.1949999332428,-0.00341796875,-1.021484375,0.087890625,10.515000104904177,1.0986328125,0.1220703125,-0.9765625
41.19999980926514,-0.00439453125,-1.009765625,0.0869140625,10.519999980926514,0.732421875,0.06103515625,-1.3427734375
41.204999923706055,0.0009765625,-1.02490234375,0.08154296875,10.525000095367432,0.30517578125,0.0,-0.06103515625
41.2099997997284,-0.00390625,-1.01904296875,0.08837890625,10.529999971389778,-0.06103515625,0.06103515625,0.0
41.21499991416931,-0.0087890625,-1.00927734375,0.09521484375,10.535000085830688,0.1220703125,0.06103515625,0.18310546875
41.21999979019165,0.0,-1.02001953125,0.07958984375,10.539999961853027,0.244140625,0.18310546875,0.30517578125
41.22499990463257,-0.001953125,-1.02294921875,0.0849609375,10.545000076293944,0.42724609375,0.18310546875,0.244140625
41.22999978065491,-0.00927734375,-1.0087890625,0.09375,10.549999952316284,0.06103515625,0.1220703125,0.1220703125
41.23499989509583,-0.00439453125,-1.01513671875,0.08349609375,10.55500006675721,0.244140625,0.06103515625,-0.1220703125
41.23999977111816,0.0,-1.0224609375,0.08203125,10.559999942779534,-0.06103515625,0.0,0.18310546875
41.24499988555908,-0.00830078125,-1.013671875,0.0927734375,10.56500005722046,0.18310546875,0.06103515625,0.1220703125
41.25,-0.00146484375,-1.017578125,0.08447265625,10.570000171661375,0.1220703125,0.18310546875,0.244140625
41.25499987602234,0.0,-1.0234375,0.08154296875,10.575000047683716,0.1220703125,0.0,-0.06103515625
41.25999999046326,-0.005859375,-1.0146484375,0.09130859375,10.580000162124634,0.06103515625,-0.06103515625,0.18310546875
41.2649998664856,-0.00439453125,-1.01220703125,0.0869140625,10.58500003814698,-0.1220703125,0.06103515625,0.18310546875
41.269999980926514,0.00048828125,-1.0166015625,0.08447265625,10.59000015258789,0.0,-0.06103515625,0.06103515625
41.27499985694885,-0.00341796875,-1.01513671875,0.08984375,10.59500002861023,0.0,0.0,0.0
41.27999997138977,-0.00390625,-1.01220703125,0.08642578125,10.600000143051147,0.0,0.1220703125,0.0
41.28499984741211,-0.00244140625,-1.01806640625,0.08251953125,10.605000019073486,0.0,0.0,0.0
41.28999996185303,-0.00341796875,-1.02001953125,0.08935546875,10.610000133514404,0.0,-0.06103515625,0.18310546875
41.294999837875366,-0.00537109375,-1.01123046875,0.0908203125,10.615000009536743,0.0,0.1220703125,0.06103515625
41.29999995231629,-0.00439453125,-1.01220703125,0.0869140625,10.620000123977668,0.06103515625,0.0,0.0
41.30499982833862,-0.00146484375,-1.021484375,0.08203125,10.625,0.1220703125,-0.06103515625,-0.06103515625
41.30999994277954,-0.00634765625,-1.015625,0.087890625,10.630000114440918,0.0,0.0,-0.1220703125
41.31499981880188,-0.0078125,-1.0087890625,0.0927734375,10.634999990463257,0.06103515625,0.06103515625,0.0
41.3199999332428,0.0,-1.0185546875,0.0830078125,10.640000104904177,0.0,-0.06103515625,-0.1220703125
41.32499980926514,-0.00732421875,-1.0185546875,0.08984375,10.644999980926514,0.0,0.0,0.0
41.329999923706055,-0.0078125,-1.0107421875,0.0908203125,10.650000095367432,-0.1220703125,0.1220703125,0.1220703125
41.3349997997284,0.00244140625,-1.021484375,0.0791015625,10.654999971389778,0.0,0.06103515625,0.06103515625
41.33999991416931,-0.005859375,-1.02001953125,0.08837890625,10.660000085830688,0.0,0.0,0.0
41.34499979019165,-0.0078125,-1.01318359375,0.0927734375,10.664999961853027,-0.06103515625,0.0,0.0
41.34999990463257,0.00048828125,-1.0185546875,0.0830078125,10.670000076293944,0.0,0.06103515625,0.0
41.35499978065491,-0.0029296875,-1.02001953125,0.0908203125,10.674999952316284,0.0,0.0,0.06103515625
41.35999989509583,-0.005859375,-1.00927734375,0.09326171875,10.68000006675721,0.0,0.06103515625,0.0
41.36499977111816,-0.00390625,-1.013671875,0.0859375,10.684999942779534,-0.06103515625,0.06103515625,0.0
41.36999988555908,-0.001953125,-1.0185546875,0.08544921875,10.69000005722046,0.1220703125,0.06103515625,0.0
41.375,-0.0048828125,-1.01806640625,0.087890625,10.695000171661375,0.0,0.0,0.0
41.37999987602234,-0.00634765625,-1.01171875,0.08984375,10.700000047683716,0.1220703125,0.06103515625,0.0
41.38499999046326,-0.001953125,-1.01513671875,0.083984375,10.705000162124634,0.0,-0.06103515625,-0.1220703125
41.3899998664856,-0.001953125,-1.021484375,0.0869140625,10.71000003814698,0.0,0.06103515625,0.0
41.394999980926514,-0.00439453125,-1.01708984375,0.08837890625,10.71500015258789,-0.06103515625,-0.06103515625,0.0
41.39999985694885,-0.00244140625,-1.015625,0.0869140625,10.72000002861023,0.0,0.0,0.0
41.40499997138977,-0.00146484375,-1.01953125,0.08203125,10.725000143051147,-0.06103515625,0.0,0.0
41.40999984741211,-0.00390625,-1.01708984375,0.087890625,10.730000019073486,-0.06103515625,0.0,0.0
41.41499996185303,-0.00439453125,-1.0146484375,0.08837890625,10.735000133514404,0.0,0.0,0.06103515625
41.419999837875366,0.0,-1.017578125,0.0810546875,10.740000009536743,-0.1220703125,-0.1220703125,-0.06103515625
41.42499995231629,-0.00439453125,-1.01513671875,0.0869140625,10.745000123977668,-0.06103515625,-0.06103515625,-0.06103515625
41.42999982833862,-0.00537109375,-1.0107421875,0.08935546875,10.75,-0.1220703125,-0.06103515625,0.0
41.43499994277954,-0.00146484375,-1.01806640625,0.08447265625,10.755000114440918,0.0,0.06103515625,0.0
41.43999981880188,-0.00439453125,-1.0205078125,0.0859375,10.759999990463257,0.0,0.0,-0.1220703125
41.4449999332428,-0.00537109375,-1.00927734375,0.09033203125,10.765000104904177,0.06103515625,0.0,0.06103515625
41.44999980926514,-0.00244140625,-1.02001953125,0.08447265625,10.769999980926514,-0.06103515625,0.0,-0.1220703125
41.454999923706055,-0.0029296875,-1.02001953125,0.0859375,10.775000095367432,0.0,0.0,0.0
41.4599997997284,-0.00634765625,-1.01025390625,0.0927734375,10.779999971389778,0.0,0.0,-0.06103515625
41.46499991416931,-0.00390625,-1.01220703125,0.08642578125,10.785000085830688,0.0,0.0,0.0
41.46999979019165,-0.0009765625,-1.02197265625,0.0849609375,10.789999961853027,0.0,-0.06103515625,0.0
41.47499990463257,-0.0048828125,-1.01416015625,0.091796875,10.795000076293944,0.0,0.0,0.06103515625
41.47999978065491,-0.001953125,-1.0146484375,0.0849609375,10.799999952316284,0.0,0.1220703125,0.0
41.48499989509583,0.0,-1.02001953125,0.083984375,10.80500006675721,0.0,-0.06103515625,-0.06103515625
41.48999977111816,-0.00390625,-1.01953125,0.08935546875,10.809999942779534,-0.1220703125,0.1220703125,-0.06103515625
41.49499988555908,-0.005859375,-1.01025390625,0.08740234375,10.81500005722046,0.0,-0.1220703125,0.0
41.5,-0.001953125,-1.0224609375,0.083984375,10.820000171661375,-0.06103515625,0.1220703125,0.06103515625
41.50499987602234,-0.00244140625,-1.02685546875,0.087890625,10.825000047683716,0.0,0.0,0.06103515625
41.50999999046326,-0.005859375,-1.01318359375,0.0888671875,10.830000162124634,0.0,0.0,0.0
41.5149998664856,-0.00439453125,-1.01025390625,0.0859375,10.83500003814698,0.06103515625,0.0,0.0
41.519999980926514,-0.0009765625,-1.02490234375,0.0830078125,10.84000015258789,0.0,0.1220703125,0.06103515625
41.52499985694885,-0.0068359375,-1.00927734375,0.09228515625,10.84500002861023,0.0,0.06103515625,0.0
41.52999997138977,-0.00439453125,-1.0087890625,0.087890625,10.850000143051147,0.06103515625,-0.06103515625,-0.06103515625
41.53499984741211,0.0,-1.02490234375,0.08251953125,10.855000019073486,0.0,0.0,0.0
41.53999996185303,-0.00634765625,-1.01611328125,0.08984375,10.860000133514404,0.06103515625,0.06103515625,0.0
41.544999837875366,-0.0087890625,-1.00732421875,0.09423828125,10.865000009536743,0.0,0.06103515625,0.0
41.54999995231629,0.0,-1.0234375,0.0830078125,10.870000123977668,0.0,0.0,0.0
41.55499982833862,-0.00634765625,-1.01123046875,0.09228515625,10.875,-0.06103515625,0.06103515625,0.06103515625
41.55999994277954,-0.00537109375,-1.01171875,0.08984375,10.880000114440918,-0.06103515625,-0.06103515625,0.0
41.56499981880188,0.0,-1.0234375,0.08203125,10.884999990463257,-0.06103515625,0.0,0.0
41.5699999332428,-0.0048828125,-1.01611328125,0.0888671875,10.890000104904177,0.0,0.0,-0.06103515625
41.57499980926514,-0.0068359375,-1.01123046875,0.08935546875,10.894999980926514,0.0,0.06103515625,0.0
41.579999923706055,-0.00146484375,-1.01904296875,0.08056640625,10.900000095367432,0.1220703125,0.0,0.06103515625
41.5849997997284,-0.00390625,-1.02490234375,0.08642578125,10.904999971389778,0.0,0.0,0.0
41.58999991416931,-0.00634765625,-1.013671875,0.09130859375,10.910000085830688,0.0,0.0,0.0
41.59499979019165,-0.00244140625,-1.0087890625,0.08447265625,10.914999961853027,0.1220703125,0.0,0.06103515625
41.59999990463257,-0.00439453125,-1.025390625,0.0849609375,10.920000076293944,0.0,0.1220703125,-0.1220703125
41.60499978065491,-0.0087890625,-1.00927734375,0.09326171875,10.924999952316284,0.0,0.06103515625,0.0
41.60999989509583,-0.005859375,-1.00927734375,0.09033203125,10.93000006675721,0.0,-0.06103515625,0.0
41.61499977111816,0.0,-1.0244140625,0.080078125,10.934999942779534,0.1220703125,-0.1220703125,0.0
41.61999988555908,-0.0068359375,-1.01708984375,0.08984375,10.94000005722046,-0.06103515625,0.0,-0.06103515625
41.625,-0.0029296875,-1.013671875,0.0849609375,10.945000171661375,0.06103515625,0.0,-0.06103515625
41.62999987602234,0.0009765625,-1.025390625,0.08154296875,10.950000047683716,-0.06103515625,0.0,0.0
41.63499999046326,-0.0068359375,-1.01318359375,0.0927734375,10.955000162124634,0.06103515625,0.1220703125,0.06103515625
41.6399998664856,-0.00341796875,-1.0068359375,0.0888671875,10.96000003814698,0.0,0.0,-0.1220703125
41.644999980926514,0.00048828125,-1.02490234375,0.080078125,10.96500015258789,0.06103515625,0.1220703125,0.0
41.64999985694885,-0.0048828125,-1.01806640625,0.091796875,10.97000002861023,0.06103515625,0.0,0.0
41.65499997138977,-0.0068359375,-1.005859375,0.09375,10.975000143051147,0.0,0.0,0.06103515625
41.65999984741211,0.0,-1.01416015625,0.08056640625,10.980000019073486,0.06103515625,0.06103515625,-0.06103515625
41.66499996185303,0.0,-1.02783203125,0.08251953125,10.985000133514404,0.06103515625,0.1220703125,-0.06103515625
41.669999837875366,-0.00830078125,-1.01171875,0.09619140625,10.990000009536743,0.1220703125,0.0,0.0
41.67499995231629,0.0,-1.017578125,0.0810546875,10.995000123977668,0.0,0.0,0.0
41.67999982833862,-0.00244140625,-1.0244140625,0.08544921875,11.0,0.0,0.06103515625,-0.1220703125
41.68499994277954,-0.00830078125,-1.01171875,0.091796875,11.005000114440918,0.0,0.0,0.1220703125
41.68999981880188,-0.00439453125,-1.0146484375,0.08837890625,11.009999990463257,0.06103515625,-0.06103515625,0.0
41.6949999332428,0.001953125,-1.0263671875,0.07763671875,11.015000104904177,0.0,0.0,0.06103515625
41.69999980926514,-0.00927734375,-1.0068359375,0.0927734375,11.019999980926514,0.0,0.0,0.0
41.704999923706055,-0.00146484375,-1.01513671875,0.08447265625,11.025000095367432,0.0,0.0,0.0
41.7099997997284,0.00244140625,-1.02685546875,0.07861328125,11.029999971389778,0.0,0.0,0.0
41.71499991416931,-0.00634765625,-1.0146484375,0.0927734375,11.035000085830688,0.0,0.06103515625,0.0
41.71999979019165,-0.0078125,-1.0078125,0.09228515625,11.039999961853027,0.0,-0.06103515625,0.0
41.72499990463257,0.00244140625,-1.021484375,0.07666015625,11.045000076293944,0.0,-0.06103515625,0.0
41.72999978065491,-0.00537109375,-1.01904296875,0.0908203125,11.049999952316284,0.0,0.0,0.0
41.73499989509583,-0.00927734375,-1.0078125,0.09326171875,11.05500006675721,0.0,0.06103515625,0.0
41.73999977111816,0.00048828125,-1.0166015625,0.080078125,11.059999942779534,0.0,0.0,0.0
41.74499988555908,-0.0029296875,-1.021484375,0.0859375,11.06500005722046,0.0,0.0,0.0
41.75,-0.00634765625,-1.00537109375,0.09130859375,11.070000171661375,0.0,-0.06103515625,0.0
41.75499987602234,0.0,-1.0234375,0.08154296875,11.075000047683716,0.0,-0.1220703125,0.0
41.75999999046326,-0.00537109375,-1.02734375,0.08544921875,11.080000162124634,0.0,0.0,0.0
41.7649998664856,-0.00830078125,-1.00732421875,0.0947265625,11.08500003814698,0.0,0.0,0.0
41.769999980926514,-0.00244140625,-1.0146484375,0.083984375,11.09000015258789,0.0,0.06103515625,0.0
41.77499985694885,-0.00341796875,-1.02294921875,0.08837890625,11.09500002861023,-0.06103515625,0.1220703125,0.0
41.77999997138977,-0.00927734375,-1.0048828125,0.0947265625,11.100000143051147,0.06103515625,-0.06103515625,0.0
41.78499984741211,-0.00048828125,-1.01953125,0.080078125,11.105000019073486,0.0,0.0,0.0
41.78999996185303,0.0,-1.02197265625,0.08203125,11.110000133514404,0.0,0.0,0.0
41.794999837875366,-0.00634765625,-1.00732421875,0.095703125,11.115000009536743,0.0,0.0,0.0
41.79999995231629,0.0,-1.01318359375,0.08349609375,11.120000123977668,-0.06103515625,0.0,0.0
41.80499982833862,0.00244140625,-1.0263671875,0.080078125,11.125,0.0,0.06103515625,0.0
41.80999994277954,-0.009765625,-1.0107421875,0.09423828125,11.130000114440918,0.0,0.0,0.0
41.81499981880188,-0.0087890625,-1.00537109375,0.09130859375,11.134999990463257,0.0,-0.1220703125,0.0
41.8199999332428,0.00341796875,-1.0224609375,0.0791015625,11.140000104904177,0.0,0.0,0.0
41.82499980926514,-0.00830078125,-1.01318359375,0.09423828125,11.144999980926514,-0.06103515625,0.06103515625,0.0
41.829999923706055,-0.00439453125,-1.00732421875,0.0908203125,11.150000095367432,0.0,-0.06103515625,0.0
41.8349997997284,0.00390625,-1.02880859375,0.08203125,11.154999971389778,-0.06103515625,-0.06103515625,0.0
41.83999991416931,-0.00537109375,-1.01416015625,0.08740234375,11.160000085830688,0.0,0.06103515625,0.0
41.84499979019165,-0.0087890625,-1.0048828125,0.09228515625,11.164999961853027,0.0,-0.06103515625,0.0
41.84999990463257,0.001953125,-1.02392578125,0.07861328125,11.170000076293944,0.0,0.0,0.0
41.85499978065491,-0.0029296875,-1.0244140625,0.08740234375,11.174999952316284,0.0,0.06103515625,0.0
41.85999989509583,-0.0087890625,-1.00146484375,0.09912109375,11.18000006675721,0.0,0.06103515625,0.0
41.86499977111816,-0.00244140625,-1.015625,0.08642578125,11.184999942779534,0.0,0.0,0.0
41.86999988555908,0.0,-1.03125,0.07958984375,11.19000005722046,0.0,0.1220703125,0.0
41.875,-0.01025390625,-1.00244140625,0.10009765625,11.195000171661375,0.0,0.0,0.0
41.87999987602234,0.0029296875,-1.021484375,0.0771484375,11.200000047683716,-0.1220703125,0.0,0.0
41.88499999046326,-0.001953125,-1.02734375,0.08349609375,11.205000162124634,0.06103515625,0.0,0.0
41.8899998664856,-0.01171875,-1.00244140625,0.0966796875,11.21000003814698,0.0,0.0,0.0
41.894999980926514,-0.0009765625,-1.01806640625,0.083984375,11.21500015258789,0.0,0.06103515625,0.0
41.89999985694885,-0.0078125,-1.0185546875,0.09033203125,11.22000002861023,0.0,0.0,0.0
41.90499997138977,-0.01025390625,-1.00244140625,0.095703125,11.225000143051147,-0.06103515625,0.0,0.0
41.90999984741211,0.00244140625,-1.02099609375,0.07763671875,11.230000019073486,0.0,0.0,0.0
41.91499996185303,0.0009765625,-1.02783203125,0.076171875,11.235000133514404,0.0,0.06103515625,0.0
41.919999837875366,-0.01171875,-1.0048828125,0.09765625,11.240000009536743,0.06103515625,0.06103515625,0.0
41.92499995231629,-0.001953125,-1.015625,0.08544921875,11.245000123977668,-0.06103515625,0.06103515625,0.0
41.92999982833862,0.0029296875,-1.02978515625,0.07763671875,11.25,0.0,0.1220703125,0.0
41.93499994277954,-0.01171875,-1.0078125,0.09423828125,11.255000114440918,-0.1220703125,-0.06103515625,0.0
41.93999981880188,-0.00537109375,-1.00927734375,0.091796875,11.259999990463257,0.0,0.0,0.0
41.9449999332428,0.00341796875,-1.03173828125,0.07421875,11.265000104904177,-0.06103515625,-0.1220703125,0.0
41.94999980926514,-0.01220703125,-0.99853515625,0.099609375,11.269999980926514,0.0,0.0,0.0
41.954999923706055,0.0,-1.01806640625,0.08203125,11.275000095367432,0.0,0.0,0.0
41.9599997997284,0.0,-1.029296875,0.07958984375,11.279999971389778,0.0,0.06103515625,0.0
41.96499991416931,-0.009765625,-1.01171875,0.09375,11.285000085830688,0.06103515625,0.06103515625,0.0
41.96999979019165,-0.00439453125,-1.0087890625,0.09130859375,11.289999961853027,0.0,0.0,0.0
41.97499990463257,-0.001953125,-1.0244140625,0.07958984375,11.295000076293944,0.0,0.0,0.0
41.97999978065491,-0.00830078125,-1.009765625,0.09765625,11.299999952316284,0.0,0.0,0.0
41.98499989509583,-0.00146484375,-1.01953125,0.08642578125,11.30500006675721,0.0,0.0,0.0
41.98999977111816,0.00048828125,-1.021484375,0.0791015625,11.309999942779534,0.0,-0.1220703125,0.0
41.99499988555908,-0.0068359375,-1.01025390625,0.09326171875,11.31500005722046,-0.06103515625,0.0,0.0
42.0,-0.00634765625,-1.01220703125,0.087890625,11.320000171661375,0.0,0.0,0.0
42.00499987602234,-0.00537109375,-1.0166015625,0.09423828125,11.325000047683716,0.0,-0.06103515625,0.0
42.00999999046326,0.00048828125,-1.02197265625,0.07958984375,11.330000162124634,0.0,0.0,0.0
42.0149998664856,-0.005859375,-1.0078125,0.08740234375,11.33500003814698,0.0,0.0,0.0
42.019999980926514,-0.00634765625,-1.01611328125,0.0927734375,11.34000015258789,-0.06103515625,0.0,0.0
42.02499985694885,-0.00146484375,-1.015625,0.08447265625,11.34500002861023,0.0,0.0,0.0
42.02999997138977,-0.00634765625,-1.01123046875,0.09326171875,11.350000143051147,0.0,-0.06103515625,0.0
42.03499984741211,0.0,-1.025390625,0.08056640625,11.355000019073486,-0.06103515625,0.0,0.0
42.03999996185303,-0.001953125,-1.0185546875,0.0869140625,11.360000133514404,0.0,0.0,0.0
42.044999837875366,-0.0078125,-1.00439453125,0.0908203125,11.365000009536743,0.0,0.0,0.0
42.04999995231629,0.0,-1.02587890625,0.083984375,11.370000123977668,-0.06103515625,0.0,0.0
42.05499982833862,-0.0068359375,-1.01025390625,0.09033203125,11.375,0.0,0.0,0.0
42.05999994277954,-0.005859375,-1.00830078125,0.0859375,11.380000114440918,-0.06103515625,0.1220703125,0.0
42.06499981880188,0.0,-1.0302734375,0.08447265625,11.384999990463257,0.0,0.0,0.0
42.0699999332428,-0.00732421875,-1.01123046875,0.0908203125,11.390000104904177,-0.06103515625,0.0,0.0
42.07499980926514,-0.00634765625,-1.00634765625,0.09033203125,11.394999980926514,0.0,0.0,0.0
42.079999923706055,0.0029296875,-1.03125,0.080078125,11.400000095367432,-0.06103515625,0.06103515625,0.0
42.0849997997284,-0.00634765625,-1.01318359375,0.0888671875,11.404999971389778,-0.1220703125,0.0,0.0
42.08999991416931,-0.00927734375,-0.9990234375,0.09619140625,11.410000085830688,-0.06103515625,0.0,0.0
42.09499979019165,0.00244140625,-1.0283203125,0.080078125,11.414999961853027,-0.1220703125,0.0,0.0
42.09999990463257,-0.01025390625,-1.00927734375,0.09130859375,11.420000076293944,0.0,0.0,0.0
42.10499978065491,-0.00634765625,-1.0029296875,0.095703125,11.424999952316284,-0.06103515625,0.0,0.0
42.10999989509583,0.0048828125,-1.03369140625,0.07177734375,11.43000006675721,0.0,0.06103515625,0.0
42.11499977111816,-0.009765625,-1.01318359375,0.0927734375,11.434999942779534,0.0,0.0,0.0
42.11999988555908,-0.00537109375,-1.00537109375,0.091796875,11.44000005722046,0.0,0.0,0.0
42.125,0.00146484375,-1.02685546875,0.08056640625,11.445000171661375,0.0,0.0,0.0
42.12999987602234,-0.01416015625,-1.0,0.10009765625,11.450000047683716,0.0,0.0,0.0
42.13499999046326,0.0029296875,-1.02099609375,0.08056640625,11.455000162124634,0.0,0.0,0.0
42.1399998664856,-0.00146484375,-1.02880859375,0.0810546875,11.46000003814698,0.06103515625,0.06103515625,0.0
42.144999980926514,-0.01123046875,-1.0029296875,0.10107421875,11.46500015258789,0.0,0.06103515625,0.0
42.14999985694885,-0.0009765625,-1.00927734375,0.08935546875,11.47000002861023,0.0,0.0,0.0
42.15499997138977,0.00439453125,-1.03466796875,0.0751953125,11.475000143051147,0.0,-0.06103515625,0.0
42.15999984741211,-0.013671875,-1.00439453125,0.09716796875,11.480000019073486,0.0,0.0,0.0
42.16499996185303,-0.00439453125,-1.0068359375,0.09228515625,11.485000133514404,0.0,0.0,0.0
42.169999837875366,0.0048828125,-1.0361328125,0.0712890625,11.490000009536743,0.0,0.06103515625,0.0
42.17499995231629,-0.01513671875,-0.9990234375,0.10595703125,11.495000123977668,0.0,0.06103515625,0.0
42.17999982833862,0.00390625,-1.029296875,0.0771484375,11.5,-0.06103515625,0.0,0.0
42.18499994277954,-0.0009765625,-1.0234375,0.0810546875,11.505000114440918,0.0,0.0,0.0
42.18999981880188,-0.01416015625,-0.99951171875,0.10546875,11.509999990463257,0.0,0.06103515625,0.0
42.1949999332428,0.00048828125,-1.017578125,0.08251953125,11.515000104904177,0.0,-0.06103515625,0.0
42.19999980926514,-0.00439453125,-1.02490234375,0.0810546875,11.519999980926514,-0.06103515625,0.0,0.0
42.204999923706055,-0.013671875,-1.0029296875,0.10546875,11.525000095367432,-0.06103515625,0.0,0.0
42.2099997997284,0.0,-1.017578125,0.08056640625,11.529999971389778,-0.06103515625,0.06103515625,0.0
42.21499991416931,0.001953125,-1.0302734375,0.07373046875,11.535000085830688,0.0,0.0,0.0
42.21999979019165,-0.01416015625,-0.9990234375,0.1015625,11.539999961853027,0.0,0.18310546875,0.0
42.22499990463257,0.00244140625,-1.0341796875,0.0771484375,11.545000076293944,0.0,0.0,0.0
42.22999978065491,-0.01513671875,-0.9970703125,0.103515625,11.549999952316284,0.0,0.0,0.0
42.23499989509583,0.00244140625,-1.0146484375,0.08251953125,11.55500006675721,0.06103515625,0.06103515625,0.0
42.23999977111816,0.00244140625,-1.0302734375,0.07470703125,11.559999942779534,0.0,0.06103515625,0.0
42.24499988555908,-0.01611328125,-0.998046875,0.10498046875,11.56500005722046,0.06103515625,-0.06103515625,0.0
42.25,0.005859375,-1.033203125,0.0693359375,11.570000171661375,0.0,0.0,0.0
42.25499987602234,-0.009765625,-1.015625,0.09130859375,11.575000047683716,0.0,0.0,0.0
42.25999999046326,-0.0087890625,-1.00244140625,0.10009765625,11.580000162124634,0.0,0.0,0.0
42.2649998664856,0.005859375,-1.02734375,0.0751953125,11.58500003814698,0.0,-0.06103515625,0.0
42.269999980926514,-0.00537109375,-1.021484375,0.0830078125,11.59000015258789,0.0,0.0,0.0
42.27499985694885,-0.01220703125,-1.0,0.10595703125,11.59500002861023,0.0,0.06103515625,0.0
42.27999997138977,0.00732421875,-1.03076171875,0.07177734375,11.600000143051147,0.0,0.0,0.0
42.28499984741211,-0.0078125,-1.0224609375,0.0859375,11.605000019073486,0.0,0.0,0.0
42.28999996185303,-0.01220703125,-0.99755859375,0.10302734375,11.610000133514404,0.0,0.0,0.0
42.294999837875366,0.00830078125,-1.033203125,0.0693359375,11.615000009536743,0.0,0.06103515625,0.0
42.29999995231629,-0.017578125,-1.001953125,0.10498046875,11.620000123977668,0.0,0.06103515625,0.0
42.30499982833862,-0.0009765625,-1.0107421875,0.08642578125,11.625,0.06103515625,0.0,0.0
42.30999994277954,0.00634765625,-1.03369140625,0.06982421875,11.630000114440918,0.06103515625,0.0,0.0
42.31499981880188,-0.0126953125,-1.01171875,0.099609375,11.634999990463257,0.0,0.0,0.0
42.3199999332428,-0.00732421875,-1.0009765625,0.09814453125,11.640000104904177,0.0,0.0,0.0
42.32499980926514,0.0029296875,-1.02880859375,0.0771484375,11.644999980926514,0.0,0.0,0.0
42.329999923706055,-0.01416015625,-0.99755859375,0.10693359375,11.650000095367432,0.06103515625,0.0,0.0
42.3349997997284,0.00341796875,-1.01904296875,0.0791015625,11.654999971389778,0.0,0.06103515625,0.0
42.33999991416931,0.0,-1.0263671875,0.07861328125,11.660000085830688,0.06103515625,0.0,0.0
42.34499979019165,-0.0146484375,-1.0,0.10400390625,11.664999961853027,0.0,0.0,0.0
42.34999990463257,0.00439453125,-1.02197265625,0.07763671875,11.670000076293944,0.0,0.0,0.0
42.35499978065491,-0.001953125,-1.0224609375,0.08056640625,11.674999952316284,0.06103515625,0.06103515625,0.0
42.35999989509583,-0.01220703125,-1.0009765625,0.1005859375,11.68000006675721,0.0,0.0,0.0
42.36499977111816,0.005859375,-1.0263671875,0.07666015625,11.684999942779534,0.0,0.0,0.0
42.36999988555908,0.0,-1.0302734375,0.07861328125,11.69000005722046,0.0,0.0,0.0
42.375,-0.0078125,-1.00244140625,0.09521484375,11.695000171661375,0.06103515625,0.06103515625,0.0
42.37999987602234,0.00390625,-1.0322265625,0.06982421875,11.700000047683716,0.0,0.0,0.0
42.38499999046326,-0.01171875,-1.01220703125,0.09375,11.705000162124634,0.0,0.06103515625,0.0
42.3899998664856,-0.0078125,-1.00390625,0.09619140625,11.71000003814698,0.0,0.0,0.0
42.394999980926514,0.0078125,-1.03369140625,0.0703125,11.71500015258789,0.0,0.0,0.0
42.39999985694885,-0.01611328125,-1.00048828125,0.10546875,11.72000002861023,0.0,0.06103515625,0.0
42.40499997138977,0.00341796875,-1.0205078125,0.07861328125,11.725000143051147,0.0,0.0,0.0
42.40999984741211,-0.0009765625,-1.025390625,0.07958984375,11.730000019073486,0.0,0.0,0.0
42.41499996185303,-0.01416015625,-0.998046875,0.10400390625,11.735000133514404,0.0,-0.1220703125,0.0
42.419999837875366,0.0048828125,-1.025390625,0.0751953125,11.740000009536743,0.0,0.1220703125,0.0
42.42499995231629,-0.00146484375,-1.02783203125,0.08203125,11.745000123977668,0.0,0.0,0.0
42.42999982833862,-0.01611328125,-1.00048828125,0.10693359375,11.75,0.0,0.0,0.0
42.43499994277954,0.001953125,-1.01513671875,0.07861328125,11.755000114440918,0.0,0.0,0.0
42.43999981880188,0.0,-1.03125,0.07763671875,11.759999990463257,0.0,0.0,0.0
42.4449999332428,-0.0146484375,-1.00048828125,0.10205078125,11.765000104904177,0.0,0.0,0.0
42.44999980926514,0.00634765625,-1.03173828125,0.06982421875,11.769999980926514,0.0,0.0,0.0
42.454999923706055,-0.0087890625,-1.0185546875,0.09228515625,11.775000095367432,0.0,0.0,0.0
42.4599997997284,-0.00732421875,-0.9990234375,0.09423828125,11.779999971389778,0.0,0.0,0.0
42.46499991416931,0.0048828125,-1.02880859375,0.07373046875,11.785000085830688,0.0,0.0,0.0
42.46999979019165,-0.01025390625,-1.01416015625,0.0908203125,11.789999961853027,0.0,0.0,0.0
42.47499990463257,0.00048828125,-1.02099609375,0.0849609375,11.795000076293944,0.0,0.0,0.0
42.47999978065491,-0.00048828125,-1.03173828125,0.07568359375,11.799999952316284,0.0,0.0,0.0
42.48499989509583,-0.015625,-0.99462890625,0.10302734375,11.80500006675721,0.0,0.0,0.0
42.48999977111816,-0.00341796875,-1.00927734375,0.09033203125,11.809999942779534,0.0,0.0,0.0
42.49499988555908,0.00390625,-1.04052734375,0.072265625,11.81500005722046,0.0,0.0,0.0
42.5,-0.01513671875,-1.00048828125,0.10595703125,11.820000171661375,0.0,0.0,0.0
42.50499987602234,-0.0009765625,-1.0087890625,0.087890625,11.825000047683716,0.0,0.0,0.0
42.50999999046326,0.0048828125,-1.0390625,0.06884765625,11.830000162124634,0.0,0.0,0.0
42.5149998664856,-0.0185546875,-1.00439453125,0.10595703125,11.83500003814698,0.0,0.0,0.0
42.519999980926514,-0.00537109375,-1.00830078125,0.083984375,11.84000015258789,0.0,0.0,0.0
42.52499985694885,-0.00439453125,-1.0263671875,0.0859375,11.84500002861023,0.0,0.0,0.0
42.52999997138977,-0.0107421875,-1.00244140625,0.1015625,11.850000143051147,0.0,0.0,0.0
42.53499984741211,0.0068359375,-1.0205078125,0.07568359375,11.855000019073486,0.0,0.0,0.0
42.53999996185303,-0.0048828125,-1.02392578125,0.083984375,11.860000133514404,0.0,0.0,0.0
42.544999837875366,-0.01318359375,-1.00439453125,0.09716796875,11.865000009536743,0.0,0.0,0.0
42.54999995231629,0.0,-1.02001953125,0.08056640625,11.870000123977668,0.0,0.0,0.0
42.55499982833862,-0.0009765625,-1.0244140625,0.08056640625,11.875,0.0,0.0,0.0
42.55999994277954,-0.0107421875,-1.0048828125,0.09765625,11.880000114440918,0.0,0.0,0.0
42.56499981880188,0.00390625,-1.02294921875,0.0791015625,11.884999990463257,0.0,0.0,0.0
42.5699999332428,-0.00048828125,-1.025390625,0.0830078125,11.890000104904177,0.0,0.0,0.0
42.57499980926514,-0.00439453125,-1.005859375,0.08837890625,11.894999980926514,0.0,0.0,0.0
42.579999923706055,0.00341796875,-1.03076171875,0.06982421875,11.900000095367432,0.0,0.0,0.0
42.5849997997284,-0.01025390625,-1.01220703125,0.09765625,11.904999971389778,0.0,0.0,0.0
42.58999991416931,-0.01025390625,-1.005859375,0.099609375,11.910000085830688,0.0,0.0,0.0
42.59499979019165,0.00439453125,-1.02294921875,0.07568359375,11.914999961853027,0.0,0.0,0.0
42.59999990463257,-0.01123046875,-1.00927734375,0.09912109375,11.920000076293944,0.0,0.0,0.0
42.60499978065491,-0.00390625,-1.01220703125,0.08544921875,11.924999952316284,0.0,0.0,0.0
42.60999989509583,0.00146484375,-1.02294921875,0.0791015625,11.93000006675721,0.0,0.0,0.0
42.61499977111816,-0.009765625,-1.01025390625,0.095703125,11.934999942779534,0.0,0.0,0.0
42.61999988555908,0.0,-1.01708984375,0.0869140625,11.94000005722046,0.0,0.0,0.0
42.625,-0.00146484375,-1.025390625,0.08203125,11.945000171661375,0.0,0.0,0.0
42.62999987602234,-0.01123046875,-1.0078125,0.09619140625,11.950000047683716,0.0,0.0,0.0
42.63499999046326,-0.00146484375,-1.01513671875,0.08154296875,11.955000162124634,0.0,0.0,0.0
42.6399998664856,-0.00048828125,-1.02490234375,0.080078125,11.96000003814698,0.0,0.0,0.0
42.644999980926514,-0.0107421875,-1.00830078125,0.09912109375,11.96500015258789,0.0,0.0,0.0
42.64999985694885,0.00439453125,-1.02490234375,0.0771484375,11.97000002861023,0.0,0.0,0.0
42.65499997138977,-0.00439453125,-1.021484375,0.0888671875,11.975000143051147,0.0,0.0,0.0
42.65999984741211,-0.01171875,-1.00244140625,0.09765625,11.980000019073486,0.0,0.0,0.0
42.66499996185303,0.00146484375,-1.02001953125,0.076171875,11.985000133514404,0.0,0.0,0.0
42.669999837875366,-0.00341796875,-1.025390625,0.08447265625,11.990000009536743,0.0,0.0,0.0
42.67499995231629,-0.0048828125,-1.00634765625,0.0908203125,11.995000123977668,0.0,0.0,0.0
42.67999982833862,0.0029296875,-1.03125,0.07275390625,12.0,0.0,0.0,0.0
42.68499994277954,-0.01318359375,-1.00341796875,0.09423828125,12.005000114440918,0.0,0.0,0.0
42.68999981880188,-0.00439453125,-1.0068359375,0.091796875,12.009999990463257,0.0,0.0,0.0
42.6949999332428,0.0048828125,-1.03857421875,0.07470703125,12.015000104904177,0.0,0.0,0.0
42.69999980926514,-0.01123046875,-1.00390625,0.09912109375,12.019999980926514,0.0,0.0,0.0
42.704999923706055,-0.00927734375,-0.99951171875,0.09765625,12.025000095367432,0.0,0.0,0.0
42.7099997997284,0.00390625,-1.03466796875,0.072265625,12.029999971389778,0.0,0.0,0.0
42.71499991416931,-0.0126953125,-1.01806640625,0.08984375,12.035000085830688,0.0,0.0,0.0
42.71999979019165,-0.0107421875,-0.99755859375,0.1005859375,12.039999961853027,0.0,0.0,0.0
42.72499990463257,0.0048828125,-1.033203125,0.076171875,12.045000076293944,0.0,0.0,0.0
42.72999978065491,-0.01171875,-1.0068359375,0.099609375,12.049999952316284,0.0,0.0,0.0
42.73499989509583,0.00048828125,-1.01513671875,0.08447265625,12.05500006675721,0.0,0.0,0.0
42.73999977111816,0.00244140625,-1.02978515625,0.07666015625,12.059999942779534,0.0,0.0,0.0
42.74499988555908,-0.015625,-1.00048828125,0.10009765625,12.06500005722046,0.0,0.0,0.0
42.75,0.005859375,-1.02783203125,0.07568359375,12.070000171661375,0.0,0.0,0.0
42.75499987602234,-0.00390625,-1.0234375,0.087890625,12.075000047683716,0.0,0.0,0.0
42.75999999046326,-0.01220703125,-1.00048828125,0.0986328125,12.080000162124634,0.0,0.0,0.0
42.7649998664856,0.00439453125,-1.02001953125,0.0810546875,12.08500003814698,0.0,0.0,0.0
42.769999980926514,0.0009765625,-1.03173828125,0.07861328125,12.09000015258789,0.0,0.0,0.0
42.77499985694885,-0.01611328125,-0.99609375,0.1015625,12.09500002861023,0.0,0.0,0.0
42.77999997138977,-0.00048828125,-1.01416015625,0.083984375,12.100000143051147,0.0,0.0,0.0
42.78499984741211,0.0,-1.0341796875,0.07666015625,12.105000019073486,0.0,0.0,0.0
42.78999996185303,-0.01220703125,-1.00146484375,0.10009765625,12.110000133514404,0.0,0.0,0.0
42.794999837875366,0.0,-1.01513671875,0.08251953125,12.115000009536743,0.0,0.0,0.0
42.79999995231629,-0.00830078125,-1.01953125,0.08935546875,12.120000123977668,0.0,0.0,0.0
42.80499982833862,-0.0078125,-1.0009765625,0.1005859375,12.125,0.0,0.0,0.0
42.80999994277954,0.00244140625,-1.02099609375,0.08154296875,12.130000114440918,0.0,0.0,0.0
42.81499981880188,-0.00341796875,-1.021484375,0.08203125,12.134999990463257,0.0,0.0,0.0
42.8199999332428,-0.0107421875,-1.00146484375,0.09814453125,12.140000104904177,0.0,0.0,0.0
42.82499980926514,0.0029296875,-1.03564453125,0.076171875,12.144999980926514,0.0,0.0,0.0
42.829999923706055,-0.01220703125,-1.00537109375,0.0966796875,12.150000095367432,0.0,0.0,0.0
42.8349997997284,-0.00146484375,-1.00732421875,0.08740234375,12.154999971389778,0.0,0.0,0.0
42.83999991416931,0.00341796875,-1.0361328125,0.0751953125,12.160000085830688,0.0,0.0,0.0
42.84499979019165,-0.01416015625,-1.00390625,0.1015625,12.164999961853027,0.0,0.0,0.0
42.84999990463257,-0.00390625,-1.00732421875,0.0869140625,12.170000076293944,0.0,0.0,0.0
42.85499978065491,0.00390625,-1.03369140625,0.07470703125,12.174999952316284,0.0,0.0,0.0
42.85999989509583,-0.01416015625,-1.01171875,0.09912109375,12.18000006675721,0.0,0.0,0.0
42.86499977111816,-0.0078125,-1.00537109375,0.09423828125,12.184999942779534,0.0,0.0,0.0
42.86999988555908,0.00439453125,-1.029296875,0.07470703125,12.19000005722046,0.0,0.0,0.0
42.875,-0.01025390625,-1.00341796875,0.09521484375,12.195000171661375,0.0,0.0,0.0
42.87999987602234,0.0,-1.017578125,0.08251953125,12.200000047683716,0.0,0.0,0.0
42.88499999046326,0.0,-1.02880859375,0.08056640625,12.205000162124634,0.0,0.0,0.0
42.8899998664856,-0.01220703125,-1.00146484375,0.09716796875,12.21000003814698,0.0,0.0,0.0
42.894999980926514,0.0,-1.017578125,0.08544921875,12.21500015258789,0.0,0.0,0.0
42.89999985694885,-0.0087890625,-1.0166015625,0.087890625,12.22000002861023,0.0,0.0,0.0
42.90499997138977,-0.0107421875,-0.998046875,0.09814453125,12.225000143051147,0.0,0.0,0.0
42.90999984741211,0.005859375,-1.03173828125,0.0771484375,12.230000019073486,0.54931640625,-0.244140625,-0.732421875
42.91499996185303,-0.00732421875,-1.01904296875,0.08935546875,12.235000133514404,1.46484375,-0.3662109375,-1.15966796875
42.919999837875366,-0.01220703125,-0.99658203125,0.10009765625,12.240000009536743,1.0986328125,-0.06103515625,-0.48828125
42.92499995231629,0.00537109375,-1.03125,0.07421875,12.245000123977668,1.03759765625,-0.06103515625,-0.79345703125
42.92999982833862,-0.00341796875,-1.0283203125,0.08154296875,12.25,0.0,0.0,-0.3662109375
42.93499994277954,-0.013671875,-1.00048828125,0.10107421875,12.255000114440918,0.732421875,-0.1220703125,-0.18310546875
42.93999981880188,0.0,-1.01953125,0.07958984375,12.259999990463257,-0.18310546875,0.0,-0.1220703125
42.9449999332428,-0.00048828125,-1.0263671875,0.08056640625,12.265000104904177,0.0,0.0,0.18310546875
42.94999980926514,-0.005859375,-1.00732421875,0.091796875,12.269999980926514,-0.6103515625,0.244140625,0.732421875
42.954999923706055,0.0009765625,-1.03125,0.07861328125,12.275000095367432,-0.06103515625,0.0,0.0
42.9599997997284,-0.00927734375,-1.00439453125,0.09521484375,12.279999971389778,-0.42724609375,0.0,0.0
42.96499991416931,-0.00341796875,-1.01123046875,0.08447265625,12.285000085830688,0.30517578125,-0.06103515625,-0.06103515625
42.96999979019165,0.00048828125,-1.033203125,0.0791015625,12.289999961853027,-0.42724609375,0.0,-0.18310546875
42.97499990463257,-0.01220703125,-1.0068359375,0.09814453125,12.295000076293944,-0.06103515625,0.06103515625,0.0
42.97999978065491,-0.0009765625,-1.0087890625,0.08642578125,12.299999952316284,-0.30517578125,0.18310546875,0.3662109375
42.98499989509583,0.00537109375,-1.03125,0.0771484375,12.30500006675721,-0.67138671875,0.18310546875,0.732421875
42.98999977111816,-0.0078125,-1.01708984375,0.09326171875,12.309999942779534,-0.732421875,0.244140625,0.54931640625
42.99499988555908,-0.00830078125,-0.99853515625,0.09423828125,12.31500005722046,-0.8544921875,0.06103515625,0.6103515625
43.0,0.00244140625,-1.0322265625,0.07666015625,12.320000171661375,-0.67138671875,0.06103515625,0.3662109375
43.00499987602234,-0.01318359375,-1.00634765625,0.0966796875,12.325000047683716,-0.42724609375,0.1220703125,0.0
43.00999999046326,-0.00244140625,-1.0107421875,0.087890625,12.330000162124634,-0.244140625,0.06103515625,0.18310546875
43.0149998664856,0.00439453125,-1.03369140625,0.076171875,12.33500003814698,-0.06103515625,0.0,0.06103515625
43.019999980926514,-0.0087890625,-1.00830078125,0.09423828125,12.34000015258789,0.0,0.06103515625,0.0
43.02499985694885,0.00244140625,-1.0234375,0.08056640625,12.34500002861023,-0.06103515625,0.0,0.0
43.02999997138977,-0.00341796875,-1.02685546875,0.08056640625,12.350000143051147,0.0,0.06103515625,0.06103515625
43.03499984741211,-0.01025390625,-1.00048828125,0.09814453125,12.355000019073486,0.0,0.06103515625,0.06103515625
43.03999996185303,-0.00048828125,-1.0146484375,0.08837890625,12.360000133514404,-0.1220703125,-0.06103515625,-0.06103515625
43.044999837875366,0.0,-1.03173828125,0.07763671875,12.365000009536743,-0.18310546875,-0.06103515625,0.0
43.04999995231629,-0.01171875,-1.00341796875,0.09814453125,12.370000123977668,-0.1220703125,0.0,-0.1220703125
43.05499982833862,-0.00146484375,-1.013671875,0.083984375,12.375,-0.1220703125,0.0,0.0
43.05999994277954,0.0009765625,-1.03173828125,0.08056640625,12.380000114440918,0.0,0.0,0.1220703125
43.06499981880188,-0.0107421875,-1.00537109375,0.09814453125,12.384999990463257,-0.06103515625,0.0,0.0
43.0699999332428,-0.00244140625,-1.01171875,0.08544921875,12.390000104904177,0.0,0.0,0.0
43.07499980926514,-0.0087890625,-1.02099609375,0.08740234375,12.394999980926514,0.0,0.0,0.06103515625
43.079999923706055,-0.01025390625,-1.0009765625,0.09375,12.400000095367432,0.0,-0.06103515625,-0.06103515625
43.0849997997284,0.00439453125,-1.0283203125,0.07958984375,12.404999971389778,-0.1220703125,0.1220703125,0.0
43.08999991416931,-0.00244140625,-1.02294921875,0.08740234375,12.410000085830688,-0.1220703125,0.0,0.0
43.09499979019165,-0.01220703125,-1.00048828125,0.09814453125,12.414999961853027,0.0,0.0,0.0
43.09999990463257,0.0048828125,-1.03466796875,0.07421875,12.420000076293944,0.0,0.0,-0.06103515625
43.10499978065491,-0.0078125,-1.01220703125,0.087890625,12.424999952316284,0.0,0.06103515625,-0.06103515625
43.10999989509583,-0.00830078125,-1.0029296875,0.09765625,12.43000006675721,-0.06103515625,-0.06103515625,-0.1220703125
43.11499977111816,0.0048828125,-1.03271484375,0.07177734375,12.434999942779534,0.0,0.0,0.0
43.11999988555908,-0.00927734375,-1.01220703125,0.09033203125,12.44000005722046,-0.06103515625,0.06103515625,-0.06103515625
43.125,-0.00830078125,-1.0009765625,0.09814453125,12.445000171661375,0.0,-0.06103515625,0.0
43.12999987602234,0.0048828125,-1.033203125,0.07470703125,12.450000047683716,0.06103515625,-0.06103515625,-0.244140625
43.13499999046326,-0.0087890625,-1.013671875,0.0888671875,12.455000162124634,0.42724609375,-0.06103515625,-0.244140625
43.1399998664856,-0.00927734375,-1.00146484375,0.0966796875,12.46000003814698,0.48828125,-0.18310546875,-0.42724609375
43.144999980926514,0.00537109375,-1.03466796875,0.07080078125,12.46500015258789,0.8544921875,-0.244140625,-0.6103515625
43.14999985694885,-0.013671875,-1.00439453125,0.099609375,12.47000002861023,0.42724609375,-0.06103515625,-0.18310546875
43.15499997138977,-0.00390625,-1.00634765625,0.09130859375,12.475000143051147,0.54931640625,-0.244140625,-0.244140625
43.15999984741211,0.00537109375,-1.0341796875,0.0732421875,12.480000019073486,0.1220703125,0.0,0.0
43.16499996185303,-0.013671875,-1.005859375,0.09423828125,12.485000133514404,0.0,0.0,0.0
43.169999837875366,-0.00390625,-1.005859375,0.09375,12.490000009536743,0.1220703125,0.0,0.0
43.17499995231629,0.0,-1.03076171875,0.08251953125,12.495000123977668,-0.3662109375,0.0,0.18310546875
43.17999982833862,-0.01513671875,-0.99658203125,0.10107421875,12.5,-0.3662109375,0.1220703125,0.3662109375
43.18499994277954,0.00634765625,-1.02490234375,0.07861328125,12.505000114440918,-0.732421875,0.1220703125,0.30517578125
43.18999981880188,-0.00048828125,-1.02392578125,0.08203125,12.509999990463257,0.732421875,0.30517578125,-0.18310546875
43.1949999332428,-0.0146484375,-1.00146484375,0.1015625,12.515000104904177,1.28173828125,-0.42724609375,-3.0517578125
43.19999980926514,0.00537109375,-1.02685546875,0.0771484375,12.519999980926514,-2.74658203125,0.67138671875,4.33349609375
43.204999923706055,0.001953125,-1.033203125,0.0771484375,12.525000095367432,-0.18310546875,0.244140625,0.79345703125
43.2099997997284,-0.0146484375,-0.99853515625,0.1005859375,12.529999971389778,-0.18310546875,0.06103515625,-0.91552734375
43.21499991416931,0.0,-1.017578125,0.08349609375,12.535000085830688,-2.685546875,0.30517578125,1.28173828125
43.21999979019165,0.00048828125,-1.033203125,0.078125,12.539999961853027,0.0,0.1220703125,1.15966796875
43.22499990463257,-0.0087890625,-0.99755859375,0.0966796875,12.545000076293944,1.40380859375,0.0,-0.48828125
43.22999978065491,0.00927734375,-1.0302734375,0.06982421875,12.549999952316284,-0.54931640625,0.0,-1.40380859375
43.23499989509583,-0.00732421875,-1.01953125,0.0908203125,12.55500006675721,-0.54931640625,-0.1220703125,0.67138671875
43.23999977111816,-0.0068359375,-1.001953125,0.0986328125,12.559999942779534,-0.06103515625,0.18310546875,0.3662109375
43.24499988555908,0.0048828125,-1.02783203125,0.07275390625,12.56500005722046,0.0,0.06103515625,-0.30517578125
43.25,-0.01318359375,-1.0029296875,0.1005859375,12.570000171661375,-0.3662109375,0.0,0.42724609375
43.25499987602234,-0.001953125,-1.01513671875,0.0849609375,12.575000047683716,0.6103515625,0.06103515625,0.06103515625
43.25999999046326,0.0068359375,-1.03271484375,0.0732421875,12.580000162124634,-0.54931640625,0.0,0.0
43.2649998664856,-0.01171875,-1.0048828125,0.09716796875,12.58500003814698,-0.30517578125,0.1220703125,0.244140625
43.269999980926514,-0.00048828125,-1.009765625,0.087890625,12.59000015258789,-0.18310546875,0.0,-0.3662109375
43.27499985694885,0.00439453125,-1.03173828125,0.07470703125,12.59500002861023,0.0,0.0,0.0
43.27999997138977,-0.01318359375,-1.00390625,0.10009765625,12.600000143051147,-0.1220703125,0.0,0.54931640625
43.28499984741211,0.00048828125,-1.0126953125,0.0830078125,12.605000019073486,0.06103515625,0.06103515625,0.0
43.28999996185303,0.00439453125,-1.037109375,0.07373046875,12.610000133514404,1.708984375,-0.1220703125,-1.40380859375
43.294999837875366,-0.0146484375,-1.0048828125,0.10107421875,12.615000009536743,1.46484375,-0.06103515625,-1.3427734375
43.29999995231629,0.005859375,-1.0263671875,0.07373046875,12.620000123977668,-0.30517578125,-0.244140625,-0.06103515625
43.30499982833862,-0.00927734375,-1.02294921875,0.08642578125,12.625,0.244140625,0.0,0.79345703125
43.30999994277954,-0.0146484375,-1.00341796875,0.10205078125,12.630000114440918,-1.64794921875,0.1220703125,0.1220703125
43.31499981880188,0.0,-1.015625,0.0810546875,12.634999990463257,-0.30517578125,-0.06103515625,0.42724609375
43.3199999332428,0.00146484375,-1.03369140625,0.07763671875,12.640000104904177,-0.1220703125,0.0,0.6103515625
43.32499980926514,-0.01318359375,-1.0009765625,0.1044921875,12.644999980926514,-0.18310546875,-0.06103515625,0.0
43.329999923706055,0.0,-1.01611328125,0.08154296875,12.650000095367432,-0.06103515625,0.0,-0.18310546875
43.3349997997284,0.0,-1.0283203125,0.07666015625,12.654999971389778,-0.3662109375,-0.06103515625,0.0
43.33999991416931,-0.01123046875,-1.00439453125,0.099609375,12.660000085830688,0.18310546875,-0.06103515625,-0.244140625
43.34499979019165,0.0009765625,-1.01953125,0.0849609375,12.664999961853027,0.18310546875,0.0,-0.30517578125
43.34999990463257,-0.009765625,-1.01220703125,0.08837890625,12.670000076293944,0.0,0.0,0.30517578125
43.35499978065491,-0.00537109375,-1.0068359375,0.0927734375,12.674999952316284,-0.06103515625,0.06103515625,0.0
43.35999989509583,0.00439453125,-1.03173828125,0.076171875,12.68000006675721,-0.1220703125,0.0,0.0
43.36499977111816,-0.00537109375,-1.02197265625,0.08837890625,12.684999942779534,-0.48828125,0.06103515625,0.1220703125
43.36999988555908,-0.0068359375,-1.0029296875,0.09814453125,12.69000005722046,0.18310546875,-0.1220703125,-0.18310546875
43.375,0.00146484375,-1.03515625,0.0771484375,12.695000171661375,0.0,-0.06103515625,-0.30517578125
43.37999987602234,-0.01611328125,-1.00146484375,0.1005859375,12.700000047683716,0.18310546875,0.18310546875,-0.06103515625
43.38499999046326,-0.00048828125,-1.0146484375,0.08447265625,12.705000162124634,0.0,0.0,0.0
43.3899998664856,0.00146484375,-1.03125,0.07373046875,12.71000003814698,0.18310546875,0.1220703125,0.0
43.394999980926514,-0.01416015625,-1.00537109375,0.10205078125,12.71500015258789,0.06103515625,-0.06103515625,-0.06103515625
43.39999985694885,0.00390625,-1.015625,0.0830078125,12.72000002861023,0.1220703125,-0.06103515625,-0.1220703125
43.40499997138977,0.00341796875,-1.03125,0.07666015625,12.725000143051147,0.1220703125,-0.1220703125,-0.18310546875
43.40999984741211,-0.01318359375,-1.00390625,0.1025390625,12.730000019073486,-0.06103515625,-0.18310546875,-0.18310546875
43.41499996185303,-0.00439453125,-1.0107421875,0.08984375,12.735000133514404,-0.06103515625,0.0,-0.1220703125
43.419999837875366,0.00341796875,-1.02783203125,0.0712890625,12.740000009536743,-0.06103515625,0.0,-0.06103515625
43.42499995231629,-0.009765625,-1.00390625,0.0986328125,12.745000123977668,0.0,0.06103515625,0.0
43.42999982833862,0.005859375,-1.02880859375,0.07763671875,12.75,0.0,0.0,-0.1220703125
43.43499994277954,-0.0048828125,-1.02001953125,0.08740234375,12.755000114440918,-0.06103515625,0.0,0.0
43.43999981880188,-0.0107421875,-0.9990234375,0.09912109375,12.759999990463257,0.0,-0.06103515625,0.0
43.4449999332428,0.00537109375,-1.02734375,0.07275390625,12.765000104904177,-0.06103515625,-0.06103515625,-0.06103515625
43.44999980926514,-0.01513671875,-1.005859375,0.10400390625,12.769999980926514,0.0,-0.06103515625,0.0
43.454999923706055,0.0,-1.01416015625,0.083984375,12.775000095367432,-0.06103515625,-0.06103515625,-0.18310546875
43.4599997997284,0.00439453125,-1.02783203125,0.0712890625,12.779999971389778,0.18310546875,0.0,0.0
43.46499991416931,-0.015625,-1.0048828125,0.1025390625,12.785000085830688,-0.1220703125,0.0,0.06103515625
43.46999979019165,-0.00537109375,-1.009765625,0.091796875,12.789999961853027,0.1220703125,0.1220703125,0.0
43.47499990463257,0.0029296875,-1.02197265625,0.07421875,12.795000076293944,0.0,0.06103515625,-0.1220703125
43.47999978065491,-0.01318359375,-1.0087890625,0.10009765625,12.799999952316284,0.0,0.0,0.06103515625
43.48499989509583,0.0,-1.01708984375,0.08740234375,12.80500006675721,0.0,-0.06103515625,0.0
43.48999977111816,0.0029296875,-1.0224609375,0.07568359375,12.809999942779534,0.0,0.0,0.0
43.49499988555908,-0.0126953125,-1.00390625,0.1015625,12.81500005722046,0.0,0.0,0.18310546875
43.5,0.00732421875,-1.02783203125,0.0703125,12.820000171661375,-0.06103515625,0.06103515625,0.0
43.50499987602234,-0.0087890625,-1.01513671875,0.09130859375,12.825000047683716,0.0,-0.06103515625,0.06103515625
43.50999999046326,-0.00732421875,-1.00927734375,0.09912109375,12.830000162124634,-0.06103515625,0.06103515625,0.06103515625
43.5149998664856,0.0087890625,-1.0244140625,0.07080078125,12.83500003814698,0.0,0.1220703125,0.0
43.519999980926514,-0.00537109375,-1.01708984375,0.0849609375,12.84000015258789,0.1220703125,0.0,-0.18310546875
43.52499985694885,0.0029296875,-1.01806640625,0.07861328125,12.84500002861023,0.06103515625,0.0,0.0
43.52999997138977,0.0,-1.02197265625,0.07568359375,12.850000143051147,0.0,0.0,0.0
43.53499984741211,-0.01318359375,-1.01220703125,0.10400390625,12.855000019073486,-0.06103515625,0.06103515625,0.06103515625
43.53999996185303,0.0,-1.01953125,0.08544921875,12.860000133514404,-0.244140625,0.18310546875,0.1220703125
43.544999837875366,0.00146484375,-1.0205078125,0.07421875,12.865000009536743,-0.06103515625,0.0,0.06103515625
43.54999995231629,-0.01318359375,-1.00634765625,0.10205078125,12.870000123977668,-0.30517578125,0.1220703125,0.0
43.55499982833862,0.00244140625,-1.02294921875,0.0810546875,12.875,-0.1220703125,0.0,0.06103515625
43.55999994277954,-0.001953125,-1.0185546875,0.076171875,12.880000114440918,-0.244140625,0.06103515625,0.0
43.56499981880188,-0.0146484375,-1.0078125,0.1064453125,12.884999990463257,-0.30517578125,0.0,0.1220703125
43.5699999332428,0.00830078125,-1.025390625,0.07275390625,12.890000104904177,-0.42724609375,-0.06103515625,0.18310546875
43.57499980926514,-0.01123046875,-1.01123046875,0.0927734375,12.894999980926514,-0.30517578125,0.1220703125,0.18310546875
43.579999923706055,-0.00927734375,-1.01171875,0.09765625,12.900000095367432,-0.30517578125,0.0,0.06103515625
43.5849997997284,0.00732421875,-1.02490234375,0.0673828125,12.904999971389778,-0.3662109375,0.0,0.06103515625
43.58999991416931,-0.009765625,-1.0107421875,0.1005859375,12.910000085830688,-0.06103515625,0.0,0.0
43.59499979019165,-0.005859375,-1.0126953125,0.0966796875,12.914999961853027,0.1220703125,0.0,0.0
43.59999990463257,-0.00390625,-1.015625,0.08251953125,12.920000076293944,0.244140625,-0.06103515625,-0.48828125
43.60499978065491,-0.01416015625,-1.0068359375,0.103515625,12.924999952316284,0.1220703125,0.18310546875,0.0
43.60999989509583,0.0048828125,-1.02587890625,0.068359375,12.93000006675721,1.28173828125,-0.06103515625,-0.30517578125
43.61499977111816,-0.0078125,-1.0166015625,0.0908203125,12.934999942779534,-2.01416015625,0.244140625,1.03759765625
43.61999988555908,-0.0087890625,-1.0146484375,0.099609375,12.94000005722046,-0.54931640625,0.0,0.1220703125
43.625,0.00634765625,-1.02392578125,0.06982421875,12.945000171661375,3.0517578125,-0.18310546875,-0.3662109375
43.62999987602234,-0.0048828125,-1.01416015625,0.083984375,12.950000047683716,-2.50244140625,-0.06103515625,0.06103515625
43.63499999046326,-0.0126953125,-1.00927734375,0.103515625,12.955000162124634,0.54931640625,-0.06103515625,0.18310546875
43.6399998664856,0.0078125,-1.0205078125,0.06884765625,12.96000003814698,3.47900390625,-0.48828125,-2.0751953125
43.644999980926514,-0.005859375,-1.01953125,0.0927734375,12.96500015258789,-3.47900390625,0.3662109375,1.3427734375
43.64999985694885,0.00341796875,-1.0185546875,0.08251953125,12.97000002861023,1.28173828125,-0.18310546875,-0.1220703125
43.65499997138977,-0.00146484375,-1.015625,0.08251953125,12.975000143051147,0.0,0.06103515625,-0.06103515625
43.65999984741211,-0.0126953125,-1.0107421875,0.1015625,12.980000019073486,0.8544921875,0.18310546875,0.54931640625
43.66499996185303,0.0029296875,-1.021484375,0.0732421875,12.985000133514404,-0.6103515625,0.06103515625,0.06103515625
43.669999837875366,-0.00537109375,-1.017578125,0.0869140625,12.990000009536743,0.1220703125,0.1220703125,-0.3662109375
43.67499995231629,-0.0078125,-1.01611328125,0.10205078125,12.995000123977668,-0.1220703125,0.1220703125,0.48828125
43.67999982833862,0.00537109375,-1.01904296875,0.07666015625,13.0,-0.9765625,-0.06103515625,-0.18310546875
43.68499994277954,-0.0068359375,-1.01318359375,0.0849609375,13.005000114440918,0.30517578125,0.06103515625,0.06103515625
43.68999981880188,-0.01171875,-1.0107421875,0.10107421875,13.009999990463257,-0.3662109375,0.1220703125,0.0
43.6949999332428,0.0029296875,-1.0244140625,0.07080078125,13.015000104904177,0.48828125,0.0,0.0
43.69999980926514,-0.01318359375,-1.015625,0.1064453125,13.019999980926514,0.18310546875,0.0,-0.30517578125
43.704999923706055,0.00341796875,-1.0224609375,0.07568359375,13.025000095367432,-0.79345703125,0.0,1.0986328125
43.7099997997284,-0.00390625,-1.015625,0.0810546875,13.029999971389778,0.0,-0.06103515625,-0.1220703125
43.71499991416931,-0.013671875,-1.0126953125,0.10302734375,13.035000085830688,-0.48828125,0.06103515625,-0.30517578125
43.71999979019165,0.0,-1.02001953125,0.07958984375,13.039999961853027,-0.30517578125,-0.06103515625,-0.06103515625
43.72499990463257,-0.01220703125,-1.01708984375,0.10498046875,13.045000076293944,0.67138671875,-0.06103515625,-0.54931640625
43.72999978065491,0.00244140625,-1.017578125,0.08056640625,13.049999952316284,-0.54931640625,0.06103515625,0.244140625
43.73499989509583,0.00146484375,-1.015625,0.07275390625,13.05500006675721,0.6103515625,0.0,0.06103515625
43.73999977111816,-0.0146484375,-1.01123046875,0.10546875,13.059999942779534,-0.42724609375,-0.06103515625,-0.1220703125
43.74499988555908,-0.00048828125,-1.0224609375,0.08056640625,13.06500005722046,-0.3662109375,0.0,0.244140625
43.75,0.00048828125,-1.0146484375,0.078125,13.070000171661375,0.30517578125,-0.06103515625,-0.1220703125
43.75499987602234,-0.01318359375,-1.0126953125,0.10498046875,13.075000047683716,-0.06103515625,0.0,-0.30517578125
43.75999999046326,0.0048828125,-1.02197265625,0.07470703125,13.080000162124634,0.18310546875,0.06103515625,0.06103515625
43.7649998664856,0.0,-1.01220703125,0.08349609375,13.08500003814698,-0.30517578125,0.1220703125,0.0
43.769999980926514,-0.01708984375,-1.01123046875,0.10791015625,13.09000015258789,0.0,0.0,0.06103515625
43.77499985694885,0.001953125,-1.0205078125,0.07080078125,13.09500002861023,0.0,0.1220703125,0.06103515625
43.77999997138977,-0.00732421875,-1.01416015625,0.10107421875,13.100000143051147,-0.1220703125,0.0,-0.06103515625
43.78499984741211,0.00537109375,-1.021484375,0.06982421875,13.105000019073486,0.0,0.0,0.0
43.78999996185303,-0.01318359375,-0.9326171875,0.12939453125,13.110000133514404,-0.1220703125,0.0,0.0
43.794999837875366,-0.00244140625,-0.9443359375,0.1259765625,13.115000009536743,-0.06103515625,0.0,-0.06103515625
43.79999995231629,-0.02294921875,-1.13330078125,0.005859375,13.120000123977668,-0.06103515625,0.06103515625,0.0
43.80499982833862,-0.0693359375,-0.93359375,0.10546875,13.125,0.0,-0.06103515625,0.0
43.80999994277954,-0.01416015625,-1.05712890625,0.0791015625,13.130000114440918,-0.1220703125,0.06103515625,0.42724609375
43.81499981880188,0.0302734375,-1.01611328125,0.10498046875,13.134999990463257,0.1220703125,0.0,-0.06103515625
43.8199999332428,0.0244140625,-0.98828125,0.1240234375,13.140000104904177,0.06103515625,0.0,-0.06103515625
43.82499980926514,0.00146484375,-0.9853515625,0.076171875,13.144999980926514,-0.18310546875,0.0,0.1220703125
43.829999923706055,0.00634765625,-0.98095703125,0.064453125,13.150000095367432,0.1220703125,0.0,0.0
43.8349997997284,-0.01416015625,-1.03173828125,0.09716796875,13.154999971389778,0.0,0.0,0.0
43.83999991416931,-0.01123046875,-1.0517578125,0.07958984375,13.160000085830688,0.06103515625,0.0,0.18310546875
43.84499979019165,-0.02294921875,-1.02392578125,0.0751953125,13.164999961853027,-0.06103515625,0.0,0.06103515625
43.84999990463257,-0.02197265625,-1.04931640625,0.06396484375,13.170000076293944,0.0,-0.06103515625,0.06103515625
43.85499978065491,-0.00244140625,-1.04150390625,0.07763671875,13.174999952316284,0.0,0.0,0.06103515625
43.85999989509583,0.01318359375,-1.009765625,0.10986328125,13.18000006675721,-0.1220703125,0.1220703125,0.0
43.86499977111816,0.0205078125,-0.9990234375,0.0869140625,13.184999942779534,0.0,0.06103515625,0.06103515625
43.86999988555908,0.01708984375,-1.01708984375,0.056640625,13.19000005722046,0.0,0.0,0.0
43.875,-0.01953125,-1.0029296875,0.11962890625,13.195000171661375,0.0,0.0,0.0
43.87999987602234,-0.0048828125,-1.01611328125,0.06884765625,13.200000047683716,0.0,0.0,0.0
43.88499999046326,-0.015625,-1.02490234375,0.087890625,13.205000162124634,0.06103515625,0.0,0.0
43.8899998664856,-0.0078125,-1.02294921875,0.0908203125,13.21000003814698,0.0,0.06103515625,0.0
43.894999980926514,0.00048828125,-1.017578125,0.07666015625,13.21500015258789,0.0,0.0,-0.06103515625
43.89999985694885,-0.00341796875,-1.001953125,0.10400390625,13.22000002861023,-0.1220703125,0.244140625,0.0
43.90499997138977,0.009765625,-1.0107421875,0.09033203125,13.225000143051147,0.0,0.0,0.0
43.90999984741211,0.0078125,-1.01513671875,0.076171875,13.230000019073486,-0.06103515625,0.0,0.06103515625
43.91499996185303,-0.02001953125,-1.0048828125,0.1123046875,13.235000133514404,-0.18310546875,0.06103515625,0.0
43.919999837875366,-0.01220703125,-1.01123046875,0.0810546875,13.240000009536743,-0.1220703125,0.1220703125,0.0
43.92499995231629,-0.02099609375,-1.02490234375,0.0888671875,13.245000123977668,-0.06103515625,0.06103515625,0.0
43.92999982833862,-0.0078125,-1.02490234375,0.07958984375,13.25,-0.1220703125,0.0,0.0
43.93499994277954,0.0078125,-1.037109375,0.06640625,13.255000114440918,-0.1220703125,0.0,-0.1220703125
43.93999981880188,-0.00244140625,-1.01513671875,0.10302734375,13.259999990463257,-0.06103515625,0.06103515625,0.0
43.9449999332428,0.00439453125,-1.01123046875,0.0888671875,13.265000104904177,-0.1220703125,0.1220703125,0.0
43.94999980926514,-0.02001953125,-1.01904296875,0.0966796875,13.269999980926514,0.0,0.06103515625,0.0
43.954999923706055,-0.009765625,-1.01904296875,0.0908203125,13.275000095367432,0.06103515625,0.0,0.06103515625
43.9599997997284,0.0,-1.03955078125,0.07470703125,13.279999971389778,-0.06103515625,0.06103515625,-0.06103515625
43.96499991416931,-0.0107421875,-1.00341796875,0.087890625,13.285000085830688,0.0,0.06103515625,0.0
43.96999979019165,0.0029296875,-1.0224609375,0.0908203125,13.289999961853027,0.0,0.06103515625,-0.06103515625
43.97499990463257,0.00830078125,-1.0205078125,0.08154296875,13.295000076293944,0.0,0.0,0.0
43.97999978065491,-0.00341796875,-0.994140625,0.1044921875,13.299999952316284,0.0,0.0,0.0
43.98499989509583,0.0,-1.01513671875,0.08642578125,13.30500006675721,-0.1220703125,0.0,0.1220703125
43.98999977111816,-0.001953125,-1.02587890625,0.08447265625,13.309999942779534,-0.06103515625,0.0,0.0
43.99499988555908,-0.01904296875,-1.00244140625,0.10107421875,13.31500005722046,-0.06103515625,0.0,0.0
44.0,-0.00439453125,-1.01513671875,0.09033203125,13.320000171661375,-0.06103515625,0.06103515625,0.0
44.00499987602234,-0.005859375,-1.00732421875,0.08251953125,13.325000047683716,0.0,0.0,-0.06103515625
44.00999999046326,-0.005859375,-1.02978515625,0.07861328125,13.330000162124634,0.06103515625,0.0,0.0
44.0149998664856,-0.01171875,-1.0166015625,0.0859375,13.33500003814698,0.0,0.0,0.0
44.019999980926514,-0.00439453125,-1.0234375,0.07763671875,13.34000015258789,0.0,0.0,0.1220703125
44.02499985694885,-0.001953125,-1.01416015625,0.0908203125,13.34500002861023,0.0,0.0,0.0
44.02999997138977,0.0126953125,-1.04345703125,0.09130859375,13.350000143051147,0.0,0.0,0.0
44.03499984741211,-0.00390625,-0.9951171875,0.0888671875,13.355000019073486,-0.06103515625,0.0,0.0
44.03999996185303,-0.005859375,-1.0068359375,0.0908203125,13.360000133514404,0.0,0.0,0.06103515625
44.044999837875366,-0.0009765625,-1.04296875,0.07080078125,13.365000009536743,0.0,0.0,0.0
44.04999995231629,-0.0126953125,-0.98046875,0.1005859375,13.370000123977668,0.0,0.0,0.0
44.05499982833862,-0.00634765625,-1.00390625,0.10400390625,13.375,0.0,0.0,0.0
44.05999994277954,0.005859375,-1.02099609375,0.08056640625,13.380000114440918,0.0,0.06103515625,0.0
44.06499981880188,-0.00927734375,-1.00732421875,0.0966796875,13.384999990463257,-0.06103515625,-0.1220703125,0.0
44.0699999332428,-0.00634765625,-1.021484375,0.08349609375,13.390000104904177,-0.1220703125,-0.06103515625,0.0
44.07499980926514,0.001953125,-1.0185546875,0.0859375,13.394999980926514,0.06103515625,-0.06103515625,0.06103515625
44.079999923706055,-0.00146484375,-1.013671875,0.09228515625,13.400000095367432,0.0,0.0,0.0
44.0849997997284,-0.0029296875,-1.0146484375,0.08984375,13.404999971389778,0.0,0.06103515625,0.0
44.08999991416931,-0.0048828125,-1.015625,0.0771484375,13.410000085830688,0.0,0.0,0.0
44.09499979019165,-0.0068359375,-1.01318359375,0.08447265625,13.414999961853027,0.0,0.0,0.0
44.09999990463257,0.001953125,-1.03125,0.08251953125,13.420000076293944,0.0,0.0,-0.06103515625
44.10499978065491,0.00341796875,-1.0234375,0.0810546875,13.424999952316284,0.0,0.06103515625,-0.06103515625
44.10999989509583,-0.0048828125,-1.0126953125,0.09033203125,13.43000006675721,0.0,0.06103515625,0.0
44.11499977111816,-0.00341796875,-1.0185546875,0.08056640625,13.434999942779534,-0.1220703125,0.0,0.0
44.11999988555908,-0.00732421875,-1.0166015625,0.08251953125,13.44000005722046,0.0,0.06103515625,0.06103515625
44.125,-0.00390625,-1.0185546875,0.09228515625,13.445000171661375,-0.1220703125,0.0,0.0
44.12999987602234,0.001953125,-1.0185546875,0.0771484375,13.450000047683716,-0.06103515625,-0.1220703125,0.06103515625
44.13499999046326,-0.00537109375,-1.009765625,0.091796875,13.455000162124634,0.0,0.18310546875,0.06103515625
44.1399998664856,-0.00830078125,-1.01025390625,0.10205078125,13.46000003814698,-0.1220703125,0.06103515625,0.0
44.144999980926514,-0.00048828125,-1.01220703125,0.0791015625,13.46500015258789,0.0,0.0,0.0
44.14999985694885,-0.00927734375,-1.02001953125,0.09814453125,13.47000002861023,-0.06103515625,-0.1220703125,0.0
44.15499997138977,0.00048828125,-1.0166015625,0.08154296875,13.475000143051147,0.0,0.06103515625,0.0
44.15999984741211,-0.00244140625,-1.0126953125,0.09375,13.480000019073486,0.0,-0.06103515625,0.0
44.16499996185303,-0.0048828125,-1.017578125,0.08837890625,13.485000133514404,0.0,0.0,0.06103515625
44.169999837875366,-0.00244140625,-1.013671875,0.078125,13.490000009536743,0.0,-0.06103515625,0.0
44.17499995231629,-0.00341796875,-1.02392578125,0.09326171875,13.495000123977668,0.0,0.0,0.0
44.17999982833862,0.0,-1.02294921875,0.08056640625,13.5,0.0,0.06103515625,0.06103515625
44.18499994277954,-0.00390625,-1.01318359375,0.08056640625,13.505000114440918,-0.06103515625,0.0,-0.06103515625
44.18999981880188,-0.0068359375,-1.017578125,0.091796875,13.509999990463257,0.06103515625,-0.1220703125,0.0
44.1949999332428,-0.00390625,-1.0185546875,0.0771484375,13.515000104904177,-0.244140625,-0.06103515625,0.1220703125
44.19999980926514,-0.00390625,-1.01904296875,0.09423828125,13.519999980926514,-0.06103515625,0.0,0.06103515625
44.204999923706055,-0.0029296875,-1.01513671875,0.08544921875,13.525000095367432,0.06103515625,0.0,0.0
44.2099997997284,-0.00390625,-1.01025390625,0.0859375,13.529999971389778,-0.244140625,0.0,0.0
44.21499991416931,-0.00341796875,-1.02001953125,0.09228515625,13.535000085830688,0.06103515625,-0.06103515625,-0.06103515625
44.21999979019165,-0.005859375,-1.01025390625,0.08447265625,13.539999961853027,-0.06103515625,0.0,0.0
44.22499990463257,-0.00537109375,-1.01953125,0.09619140625,13.545000076293944,0.0,0.0,0.0
44.22999978065491,0.00341796875,-1.01806640625,0.07958984375,13.549999952316284,0.0,0.18310546875,0.0
44.23499989509583,-0.0087890625,-1.00927734375,0.095703125,13.55500006675721,-0.06103515625,0.0,0.1220703125
44.23999977111816,-0.00732421875,-1.01025390625,0.095703125,13.559999942779534,-0.1220703125,-0.18310546875,0.06103515625
44.24499988555908,0.0048828125,-1.017578125,0.0712890625,13.56500005722046,-0.06103515625,0.06103515625,-0.06103515625
44.25,-0.00634765625,-1.02099609375,0.09521484375,13.570000171661375,0.0,0.06103515625,-0.06103515625
44.25499987602234,-0.001953125,-1.0234375,0.0859375,13.575000047683716,0.0,0.0,0.06103515625
44.25999999046326,-0.001953125,-1.0126953125,0.07958984375,13.580000162124634,-0.244140625,0.0,0.0
44.2649998664856,-0.0029296875,-1.02197265625,0.09033203125,13.58500003814698,-0.06103515625,0.0,0.0
44.269999980926514,-0.001953125,-1.01513671875,0.076171875,13.59000015258789,0.0,0.0,-0.06103515625
44.27499985694885,-0.0068359375,-1.0185546875,0.09814453125,13.59500002861023,-0.1220703125,0.0,0.0
44.27999997138977,0.00146484375,-1.02490234375,0.0751953125,13.600000143051147,0.67138671875,0.0,-0.67138671875
44.28499984741211,-0.00244140625,-1.01708984375,0.08447265625,13.605000019073486,-2.13623046875,0.42724609375,1.03759765625
44.28999996185303,-0.0107421875,-1.01171875,0.10205078125,13.610000133514404,2.5634765625,-0.79345703125,-3.0517578125
44.294999837875366,0.0,-1.01318359375,0.07421875,13.615000009536743,0.9765625,0.42724609375,1.52587890625
44.29999995231629,-0.00830078125,-1.015625,0.10009765625,13.620000123977668,-0.9765625,-0.30517578125,-0.42724609375
44.30499982833862,-0.00244140625,-1.01904296875,0.087890625,13.625,1.52587890625,0.18310546875,0.54931640625
44.30999994277954,-0.001953125,-1.00732421875,0.0888671875,13.630000114440918,-0.3662109375,0.1220703125,0.3662109375
44.31499981880188,-0.0068359375,-1.0224609375,0.0966796875,13.634999990463257,1.3427734375,-0.06103515625,-0.30517578125
44.3199999332428,-0.00048828125,-1.01318359375,0.0791015625,13.640000104904177,-0.6103515625,-0.06103515625,-0.3662109375
44.32499980926514,-0.00634765625,-1.00927734375,0.095703125,13.644999980926514,0.732421875,0.0,-0.42724609375
44.329999923706055,-0.00341796875,-1.02197265625,0.0849609375,13.650000095367432,0.1220703125,0.06103515625,0.1220703125
44.3349997997284,0.0,-1.0146484375,0.07763671875,13.654999971389778,-0.54931640625,0.06103515625,0.1220703125
44.33999991416931,-0.009765625,-1.01416015625,0.099609375,13.660000085830688,0.48828125,0.1220703125,0.30517578125
44.34499979019165,0.001953125,-1.0244140625,0.0771484375,13.664999961853027,-0.732421875,-0.06103515625,-0.3662109375
44.34999990463257,-0.0087890625,-1.01123046875,0.09375,13.670000076293944,1.03759765625,-0.30517578125,-0.48828125
44.35499978065491,-0.005859375,-1.021484375,0.08251953125,13.674999952316284,0.42724609375,0.0,0.0
44.35999989509583,0.00048828125,-1.02001953125,0.0771484375,13.68000006675721,0.3662109375,0.1220703125,0.42724609375
44.36499977111816,-0.0107421875,-1.017578125,0.099609375,13.684999942779534,-1.03759765625,0.1220703125,0.244140625
44.36999988555908,-0.0029296875,-1.013671875,0.080078125,13.69000005722046,0.8544921875,-0.1220703125,-0.42724609375
44.375,-0.01025390625,-1.01806640625,0.09619140625,13.695000171661375,-1.03759765625,0.06103515625,0.244140625
44.37999987602234,-0.0009765625,-1.01708984375,0.0810546875,13.700000047683716,0.244140625,0.1220703125,0.06103515625
44.38499999046326,-0.005859375,-1.01220703125,0.09033203125,13.705000162124634,-0.42724609375,-0.06103515625,-0.06103515625
44.3899998664856,-0.00439453125,-1.01416015625,0.0947265625,13.71000003814698,-0.1220703125,-0.06103515625,0.30517578125
44.394999980926514,0.0,-1.01708984375,0.0791015625,13.71500015258789,0.06103515625,-0.1220703125,-0.54931640625
44.39999985694885,-0.0068359375,-1.0107421875,0.09375,13.72000002861023,0.06103515625,0.06103515625,-0.06103515625
44.40499997138977,-0.001953125,-1.02099609375,0.0859375,13.725000143051147,-0.79345703125,0.244140625,0.48828125
44.40999984741211,-0.0029296875,-1.0146484375,0.08447265625,13.730000019073486,-0.1220703125,-0.1220703125,0.0
44.41499996185303,-0.00537109375,-1.01123046875,0.09912109375,13.735000133514404,0.67138671875,-0.18310546875,-0.48828125
44.419999837875366,-0.00146484375,-1.01416015625,0.07568359375,13.740000009536743,-1.15966796875,0.18310546875,1.03759765625
44.42499995231629,-0.00634765625,-1.02734375,0.0966796875,13.745000123977668,0.67138671875,0.0,-0.3662109375
44.42999982833862,-0.0009765625,-1.021484375,0.08056640625,13.75,-0.06103515625,0.1220703125,0.244140625
44.43499994277954,-0.00244140625,-1.00927734375,0.08740234375,13.755000114440918,2.8076171875,-0.42724609375,-0.91552734375
44.43999981880188,-0.00341796875,-1.01708984375,0.08984375,13.759999990463257,-3.2958984375,0.48828125,0.42724609375
44.4449999332428,-0.001953125,-1.01904296875,0.0732421875,13.765000104904177,0.8544921875,-0.1220703125,0.1220703125
44.44999980926514,-0.00927734375,-1.01513671875,0.09130859375,13.769999980926514,0.8544921875,-0.06103515625,0.0
44.454999923706055,-0.0029296875,-1.02099609375,0.09033203125,13.775000095367432,-1.5869140625,-0.1220703125,-0.42724609375
44.4599997997284,0.00146484375,-1.02099609375,0.07958984375,13.779999971389778,0.42724609375,0.06103515625,0.6103515625
44.46499991416931,-0.00830078125,-1.01220703125,0.09765625,13.785000085830688,-0.42724609375,0.0,-0.1220703125
44.46999979019165,-0.00244140625,-1.0087890625,0.08203125,13.789999961853027,-0.30517578125,0.0,0.0
44.47499990463257,-0.0048828125,-1.0185546875,0.09521484375,13.795000076293944,-0.06103515625,0.0,0.3662109375
44.47999978065491,-0.001953125,-1.02001953125,0.08544921875,13.799999952316284,-0.6103515625,0.0,0.0
44.48499989509583,-0.00146484375,-1.01171875,0.08740234375,13.80500006675721,0.18310546875,0.0,-0.06103515625
44.48999977111816,-0.005859375,-1.015625,0.09375,13.809999942779534,-0.48828125,0.06103515625,0.18310546875
44.49499988555908,-0.001953125,-1.013671875,0.07763671875,13.81500005722046,-0.06103515625,0.0,-0.06103515625
44.5,-0.00732421875,-1.0205078125,0.095703125,13.820000171661375,-0.30517578125,0.06103515625,0.06103515625
44.50499987602234,-0.0009765625,-1.02294921875,0.078125,13.825000047683716,-0.06103515625,0.0,0.1220703125
44.50999999046326,-0.0029296875,-1.009765625,0.08984375,13.830000162124634,-0.244140625,0.0,0.0
44.5149998664856,-0.00341796875,-1.01904296875,0.0888671875,13.83500003814698,0.1220703125,0.0,0.0
44.519999980926514,-0.00341796875,-1.01953125,0.0791015625,13.84000015258789,-0.18310546875,0.0,0.06103515625
44.52499985694885,-0.009765625,-1.01220703125,0.09228515625,13.84500002861023,0.0,-0.1220703125,0.0
44.52999997138977,-0.0029296875,-1.0224609375,0.08154296875,13.850000143051147,-0.30517578125,0.0,0.06103515625
44.53499984741211,-0.0029296875,-1.015625,0.08349609375,13.855000019073486,0.0,-0.1220703125,0.0
44.53999996185303,-0.005859375,-1.015625,0.09716796875,13.860000133514404,-0.244140625,0.0,0.1220703125
44.544999837875366,-0.00048828125,-1.0166015625,0.08056640625,13.865000009536743,0.06103515625,0.0,0.06103515625
44.54999995231629,-0.00732421875,-1.01513671875,0.095703125,13.870000123977668,-0.06103515625,0.0,0.0
44.55499982833862,-0.0029296875,-1.01953125,0.0908203125,13.875,-0.18310546875,0.0,0.06103515625
44.55999994277954,-0.00244140625,-1.01123046875,0.08349609375,13.880000114440918,-0.06103515625,0.0,0.06103515625
44.56499981880188,-0.00634765625,-1.01806640625,0.09375,13.884999990463257,0.0,0.06103515625,0.0
44.5699999332428,-0.0029296875,-1.0126953125,0.08056640625,13.890000104904177,-0.06103515625,0.1220703125,0.06103515625
44.57499980926514,-0.00244140625,-1.02099609375,0.09228515625,13.894999980926514,-0.06103515625,-0.06103515625,0.0
44.579999923706055,-0.00146484375,-1.0166015625,0.08203125,13.900000095367432,0.0,0.0,-0.06103515625
44.5849997997284,-0.00537109375,-1.0087890625,0.0927734375,13.904999971389778,0.0,0.06103515625,-0.06103515625
44.58999991416931,-0.00244140625,-1.01806640625,0.0849609375,13.910000085830688,0.0,-0.1220703125,0.0
44.59499979019165,-0.00244140625,-1.02587890625,0.083984375,13.914999961853027,0.0,0.06103515625,0.0
44.59999990463257,-0.0029296875,-1.0146484375,0.08935546875,13.920000076293944,-0.06103515625,0.0,0.06103515625
44.60499978065491,-0.00341796875,-1.02197265625,0.08740234375,13.924999952316284,0.0,0.06103515625,0.0
44.60999989509583,0.00048828125,-1.01806640625,0.08056640625,13.93000006675721,-0.1220703125,-0.06103515625,0.0
44.61499977111816,-0.0068359375,-1.0166015625,0.08935546875,13.934999942779534,0.0,0.0,0.18310546875
44.61999988555908,-0.00390625,-1.009765625,0.0849609375,13.94000005722046,-0.1220703125,0.06103515625,0.1220703125
44.625,0.0009765625,-1.0263671875,0.08642578125,13.945000171661375,-0.1220703125,0.0,0.0
44.62999987602234,-0.00634765625,-1.01220703125,0.09423828125,13.950000047683716,0.1220703125,0.06103515625,0.30517578125
44.63499999046326,-0.00439453125,-1.0107421875,0.087890625,13.955000162124634,-0.30517578125,0.18310546875,0.1220703125
44.6399998664856,-0.0029296875,-1.015625,0.08203125,13.96000003814698,-0.06103515625,0.0,-0.1220703125
44.644999980926514,-0.005859375,-1.01171875,0.083984375,13.96500015258789,-0.18310546875,0.0,0.0
44.64999985694885,-0.00146484375,-1.02001953125,0.087890625,13.97000002861023,-0.244140625,0.06103515625,0.0
44.65499997138977,-0.00341796875,-1.017578125,0.08642578125,13.975000143051147,0.1220703125,0.1220703125,0.0
44.65999984741211,-0.00537109375,-1.01123046875,0.0869140625,13.980000019073486,-0.18310546875,0.0,0.0
44.66499996185303,-0.005859375,-1.01904296875,0.08447265625,13.985000133514404,0.0,0.0,-0.06103515625
44.669999837875366,-0.0068359375,-1.01171875,0.08251953125,13.990000009536743,0.0,0.0,0.0
44.67499995231629,-0.00390625,-1.021484375,0.08935546875,13.995000123977668,0.0,0.0,0.0
44.67999982833862,-0.0009765625,-1.02197265625,0.0869140625,14.0,0.0,0.0,0.0
44.68499994277954,-0.001953125,-1.015625,0.08544921875,14.005000114440918,0.0,0.0,-0.06103515625
44.68999981880188,-0.0068359375,-1.00927734375,0.08837890625,14.009999990463257,0.0,0.0,0.0
44.6949999332428,0.0,-1.02197265625,0.0791015625,14.015000104904177,0.0,0.0,0.06103515625
44.69999980926514,-0.005859375,-1.01318359375,0.09423828125,14.019999980926514,-0.06103515625,0.0,0.0
44.704999923706055,-0.0009765625,-1.01904296875,0.080078125,14.025000095367432,0.0,0.0,0.0
44.7099997997284,-0.0048828125,-1.01904296875,0.0869140625,14.029999971389778,-0.06103515625,0.0,0.06103515625
44.71499991416931,-0.00634765625,-1.01123046875,0.09033203125,14.035000085830688,-0.1220703125,0.0,0.0
44.71999979019165,-0.0009765625,-1.021484375,0.08349609375,14.039999961853027,-0.1220703125,0.06103515625,0.0
44.72499990463257,-0.00732421875,-1.0048828125,0.0927734375,14.045000076293944,0.0,0.06103515625,-0.06103515625
44.72999978065491,0.00048828125,-1.02001953125,0.08349609375,14.049999952316284,0.0,0.0,0.0
44.73499989509583,-0.00146484375,-1.03173828125,0.087890625,14.05500006675721,-0.06103515625,0.0,-0.06103515625
44.73999977111816,-0.0107421875,-1.01025390625,0.091796875,14.059999942779534,-0.06103515625,0.18310546875,0.0
44.74499988555908,-0.00634765625,-1.00146484375,0.087890625,14.06500005722046,0.0,0.0,0.0
44.75,-0.00048828125,-1.02685546875,0.0771484375,14.070000171661375,0.0,0.0,0.0
44.75499987602234,-0.00634765625,-1.02734375,0.08544921875,14.075000047683716,0.0,0.0,0.0
44.75999999046326,-0.0107421875,-1.009765625,0.10302734375,14.080000162124634,0.0,0.0,0.0
44.7649998664856,0.00439453125,-1.01953125,0.080078125,14.08500003814698,0.0,0.0,0.0
44.769999980926514,0.0,-1.02099609375,0.0791015625,14.09000015258789,0.0,-0.06103515625,0.0
44.77499985694885,-0.00830078125,-1.0146484375,0.09033203125,14.09500002861023,0.0,0.0,0.06103515625
44.77999997138977,0.0009765625,-1.02392578125,0.07568359375,14.100000143051147,-0.06103515625,0.06103515625,0.0
44.78499984741211,-0.00830078125,-1.015625,0.09814453125,14.105000019073486,-0.06103515625,0.0,0.0
44.78999996185303,-0.00048828125,-1.013671875,0.08984375,14.110000133514404,-0.06103515625,0.06103515625,0.0
44.794999837875366,0.0009765625,-1.01806640625,0.08203125,14.115000009536743,0.0,0.0,0.0
44.79999995231629,-0.00927734375,-1.01513671875,0.0908203125,14.120000123977668,0.0,0.0,0.0
44.80499982833862,-0.0068359375,-1.015625,0.0869140625,14.125,0.06103515625,0.0,0.0
44.80999994277954,-0.00146484375,-1.01708984375,0.09228515625,14.130000114440918,0.06103515625,0.0,-0.06103515625
44.81499981880188,-0.00146484375,-1.0146484375,0.08447265625,14.134999990463257,0.0,0.0,0.06103515625
44.8199999332428,-0.00341796875,-1.00927734375,0.0859375,14.140000104904177,0.0,0.06103515625,0.0
44.82499980926514,-0.0029296875,-1.03125,0.083984375,14.144999980926514,0.0,0.06103515625,0.06103515625
44.829999923706055,-0.0087890625,-1.01123046875,0.0908203125,14.150000095367432,0.0,0.0,0.0
44.8349997997284,-0.0048828125,-1.00634765625,0.0908203125,14.154999971389778,0.0,-0.18310546875,-0.06103515625
44.83999991416931,0.00244140625,-1.02490234375,0.0693359375,14.160000085830688,-0.1220703125,-0.06103515625,0.06103515625
44.84499979019165,-0.0078125,-1.017578125,0.09716796875,14.164999961853027,0.0,0.0,0.1220703125
44.84999990463257,0.001953125,-1.0244140625,0.076171875,14.170000076293944,-0.06103515625,0.06103515625,0.0
44.85499978065491,-0.00634765625,-1.00341796875,0.08740234375,14.174999952316284,-0.06103515625,0.1220703125,0.0
44.85999989509583,-0.001953125,-1.02001953125,0.08642578125,14.18000006675721,-0.06103515625,-0.06103515625,0.0
44.86499977111816,-0.00390625,-1.0224609375,0.08203125,14.184999942779534,0.0,0.06103515625,0.0
44.86999988555908,-0.0087890625,-1.01318359375,0.10009765625,14.19000005722046,0.0,0.0,0.0
44.875,0.0029296875,-1.02490234375,0.078125,14.195000171661375,-0.06103515625,0.0,0.06103515625
44.87999987602234,-0.0048828125,-1.01416015625,0.08837890625,14.200000047683716,0.0,0.0,0.0
44.88499999046326,-0.00732421875,-1.01806640625,0.0947265625,14.205000162124634,-0.06103515625,-0.06103515625,0.0
44.8899998664856,-0.00341796875,-1.01123046875,0.07763671875,14.21000003814698,0.06103515625,-0.06103515625,0.0
44.894999980926514,-0.00341796875,-1.013671875,0.091796875,14.21500015258789,-0.06103515625,0.0,-0.06103515625
44.89999985694885,0.00048828125,-1.02001953125,0.08349609375,14.22000002861023,0.0,0.0,0.06103515625
44.90499997138977,-0.0078125,-1.00830078125,0.09521484375,14.225000143051147,0.0,0.0,-0.1220703125
44.90999984741211,-0.00244140625,-1.02001953125,0.0810546875,14.230000019073486,-0.06103515625,0.0,0.1220703125
44.91499996185303,-0.00341796875,-1.01416015625,0.08544921875,14.235000133514404,0.0,0.06103515625,0.0
44.919999837875366,-0.0087890625,-1.0166015625,0.08984375,14.240000009536743,0.0,-0.06103515625,0.06103515625
44.92499995231629,-0.00390625,-1.01123046875,0.0859375,14.245000123977668,-0.06103515625,0.0,0.1220703125
44.92999982833862,-0.0009765625,-1.02099609375,0.0849609375,14.25,-0.06103515625,0.0,0.0
44.93499994277954,-0.00439453125,-1.0234375,0.08349609375,14.255000114440918,0.0,0.1220703125,0.0
44.93999981880188,-0.00927734375,-1.00732421875,0.09033203125,14.259999990463257,0.0,0.06103515625,0.0
44.9449999332428,0.0,-1.02392578125,0.08154296875,14.265000104904177,0.0,0.0,0.0
44.94999980926514,-0.0029296875,-1.0146484375,0.08203125,14.269999980926514,-0.1220703125,0.0,0.0
44.954999923706055,-0.009765625,-1.01611328125,0.10009765625,14.275000095367432,0.0,0.0,0.0
44.9599997997284,0.0009765625,-1.0166015625,0.076171875,14.279999971389778,0.0,0.0,-0.06103515625
44.96499991416931,-0.0078125,-1.01513671875,0.087890625,14.285000085830688,0.0,0.0,-0.06103515625
44.96999979019165,-0.0068359375,-1.01806640625,0.0986328125,14.289999961853027,0.0,0.0,0.0
44.97499990463257,0.0009765625,-1.015625,0.0830078125,14.295000076293944,0.0,-0.06103515625,0.0
44.97999978065491,-0.00439453125,-1.015625,0.09521484375,14.299999952316284,-0.06103515625,0.0,0.06103515625
44.98499989509583,-0.00439453125,-1.0126953125,0.08154296875,14.30500006675721,-0.1220703125,0.0,0.0
44.98999977111816,-0.001953125,-1.01708984375,0.08740234375,14.309999942779534,0.0,0.0,-0.06103515625
44.99499988555908,-0.00390625,-1.02587890625,0.08984375,14.31500005722046,0.0,0.06103515625,0.0
45.0,-0.0029296875,-1.013671875,0.0849609375,14.320000171661375,-0.06103515625,0.06103515625,0.0
45.00499987602234,-0.005859375,-1.017578125,0.087890625,14.325000047683716,0.0,0.0,0.0
45.00999999046326,-0.00244140625,-1.01025390625,0.083984375,14.330000162124634,0.0,0.06103515625,0.0
45.0149998664856,-0.00341796875,-1.02294921875,0.0908203125,14.33500003814698,0.0,0.0,-0.06103515625
45.019999980926514,-0.0009765625,-1.02294921875,0.083984375,14.34000015258789,0.0,0.0,0.1220703125
45.02499985694885,-0.005859375,-1.01708984375,0.0888671875,14.34500002861023,-0.06103515625,0.0,0.0
45.02999997138977,-0.00390625,-1.0107421875,0.08935546875,14.350000143051147,-0.06103515625,0.0,0.0
45.03499984741211,-0.0009765625,-1.01318359375,0.0791015625,14.355000019073486,0.0,0.1220703125,0.0
45.03999996185303,-0.00634765625,-1.0234375,0.09619140625,14.360000133514404,-0.06103515625,0.0,0.1220703125
45.044999837875366,-0.00048828125,-1.0224609375,0.0810546875,14.365000009536743,0.0,0.0,0.0
45.04999995231629,-0.00830078125,-1.0078125,0.0966796875,14.370000123977668,0.0,0.0,0.06103515625
45.05499982833862,0.0,-1.0166015625,0.07763671875,14.375,0.0,0.1220703125,0.0
45.05999994277954,-0.00048828125,-1.02490234375,0.08740234375,14.380000114440918,0.0,0.0,0.0
45.06499981880188,-0.00927734375,-1.017578125,0.0986328125,14.384999990463257,-0.06103515625,-0.06103515625,-0.06103515625
45.0699999332428,-0.00390625,-1.0166015625,0.08642578125,14.390000104904177,0.0,-0.06103515625,0.06103515625
45.07499980926514,-0.00537109375,-1.01953125,0.0859375,14.394999980926514,0.0,-0.06103515625,0.06103515625
45.079999923706055,-0.00830078125,-1.017578125,0.08642578125,14.400000095367432,-0.06103515625,0.18310546875,0.0
45.0849997997284,-0.001953125,-1.02294921875,0.08544921875,14.404999971389778,0.0,0.0,-0.06103515625
45.08999991416931,-0.001953125,-1.01806640625,0.08935546875,14.410000085830688,0.0,0.0,0.0
45.09499979019165,-0.00439453125,-1.0126953125,0.0859375,14.414999961853027,-0.1220703125,0.0,0.0
45.09999990463257,-0.0029296875,-1.0146484375,0.0859375,14.420000076293944,0.0,0.0,0.06103515625
45.10499978065491,-0.00439453125,-1.029296875,0.07470703125,14.424999952316284,-0.1220703125,0.0,0.0
45.10999989509583,-0.01171875,-1.00830078125,0.10302734375,14.43000006675721,-0.06103515625,0.0,0.0
45.11499977111816,0.00146484375,-1.01513671875,0.0810546875,14.434999942779534,0.0,0.0,0.0
45.11999988555908,0.0009765625,-1.02197265625,0.080078125,14.44000005722046,0.0,0.0,0.0
45.125,-0.0087890625,-1.01025390625,0.095703125,14.445000171661375,0.0,0.0,0.0
45.12999987602234,0.0009765625,-1.02294921875,0.07861328125,14.450000047683716,0.0,0.06103515625,0.0
45.13499999046326,-0.005859375,-1.01318359375,0.091796875,14.455000162124634,0.0,0.06103515625,0.0
45.1399998664856,-0.00341796875,-1.013671875,0.08935546875,14.46000003814698,0.0,0.0,0.0
45.144999980926514,-0.001953125,-1.013671875,0.08056640625,14.46500015258789,0.0,0.0,0.0
45.14999985694885,-0.00439453125,-1.02490234375,0.09033203125,14.47000002861023,0.0,0.0,0.0
45.15499997138977,-0.00439453125,-1.013671875,0.08740234375,14.475000143051147,-0.06103515625,0.1220703125,0.0
45.15999984741211,-0.00048828125,-1.01611328125,0.0849609375,14.480000019073486,0.0,0.0,0.0
45.16499996185303,-0.00341796875,-1.015625,0.08447265625,14.485000133514404,0.0,0.0,0.0
45.169999837875366,-0.0048828125,-1.009765625,0.09326171875,14.490000009536743,0.0,0.1220703125,0.0
45.17499995231629,0.0,-1.02294921875,0.078125,14.495000123977668,-0.06103515625,0.06103515625,0.0
45.17999982833862,-0.009765625,-1.02099609375,0.09130859375,14.5,0.0,0.1220703125,0.0
45.18499994277954,-0.00146484375,-1.01513671875,0.08544921875,14.505000114440918,0.0,-0.1220703125,0.0
45.18999981880188,-0.00048828125,-1.025390625,0.08203125,14.509999990463257,0.0,0.0,0.0
45.1949999332428,-0.009765625,-1.0068359375,0.09814453125,14.515000104904177,0.0,0.1220703125,0.0
45.19999980926514,0.0,-1.01708984375,0.078125,14.519999980926514,-0.06103515625,-0.06103515625,0.0
45.204999923706055,-0.0048828125,-1.01416015625,0.09326171875,14.525000095367432,-0.06103515625,-0.06103515625,0.0
45.2099997997284,-0.00048828125,-1.03173828125,0.08740234375,14.529999971389778,-0.06103515625,0.06103515625,0.0
45.21499991416931,-0.00341796875,-1.00244140625,0.08642578125,14.535000085830688,0.0,0.18310546875,0.0
45.21999979019165,-0.0107421875,-1.0029296875,0.09033203125,14.539999961853027,-0.1220703125,0.1220703125,0.0
45.22499990463257,-0.00390625,-1.02392578125,0.0791015625,14.545000076293944,0.0,0.0,0.0
45.22999978065491,-0.00341796875,-1.01806640625,0.08642578125,14.549999952316284,-0.06103515625,0.0,0.0
45.23499989509583,-0.00634765625,-1.01904296875,0.1005859375,14.55500006675721,0.0,0.0,0.0
45.23999977111816,0.0,-1.005859375,0.08251953125,14.559999942779534,-0.06103515625,-0.06103515625,0.0
45.24499988555908,0.0,-1.01416015625,0.080078125,14.56500005722046,0.0,0.0,0.0
45.25,-0.01123046875,-1.01806640625,0.09375,14.570000171661375,0.0,-0.06103515625,0.0
45.25499987602234,-0.00341796875,-1.01123046875,0.08935546875,14.575000047683716,0.0,0.06103515625,0.0
45.25999999046326,0.00146484375,-1.01904296875,0.08056640625,14.580000162124634,0.0,-0.06103515625,0.0
45.2649998664856,-0.0068359375,-1.01123046875,0.09130859375,14.58500003814698,0.0,0.06103515625,0.0
45.269999980926514,-0.001953125,-1.0185546875,0.08251953125,14.59000015258789,0.0,0.0,0.0
45.27499985694885,-0.00244140625,-1.013671875,0.0888671875,14.59500002861023,0.0,0.0,0.0
45.27999997138977,0.00244140625,-1.03173828125,0.08251953125,14.600000143051147,0.0,0.0,0.0
45.28499984741211,-0.0087890625,-1.00830078125,0.087890625,14.605000019073486,-0.18310546875,0.0,0.0
45.28999996185303,-0.0068359375,-1.0048828125,0.0927734375,14.610000133514404,-0.1220703125,0.0,0.0
45.294999837875366,0.0,-1.03173828125,0.078125,14.615000009536743,0.0,-0.06103515625,0.0
45.29999995231629,-0.00537109375,-1.01904296875,0.09130859375,14.620000123977668,0.0,0.0,0.0
45.30499982833862,-0.009765625,-1.01171875,0.103515625,14.625,0.0,0.0,0.0
45.30999994277954,0.00048828125,-1.00830078125,0.07373046875,14.630000114440918,-0.06103515625,0.06103515625,0.0
45.31499981880188,0.00048828125,-1.0185546875,0.08544921875,14.634999990463257,0.0,0.0,0.0
45.3199999332428,-0.009765625,-1.0224609375,0.09423828125,14.640000104904177,0.0,-0.06103515625,0.0
45.32499980926514,-0.0029296875,-1.0185546875,0.0869140625,14.644999980926514,0.0,-0.06103515625,0.0
45.329999923706055,-0.0068359375,-1.0107421875,0.087890625,14.650000095367432,0.0,0.0,0.0
45.3349997997284,-0.005859375,-1.00927734375,0.078125,14.654999971389778,0.0,0.0,0.0
45.33999991416931,-0.0048828125,-1.02734375,0.08935546875,14.660000085830688,-0.1220703125,0.0,0.0
45.34499979019165,-0.00244140625,-1.01513671875,0.09033203125,14.664999961853027,0.0,0.0,0.0
45.34999990463257,0.0,-1.02001953125,0.08349609375,14.670000076293944,-0.1220703125,0.0,0.0
45.35499978065491,-0.00732421875,-1.01611328125,0.09228515625,14.674999952316284,0.0,0.0,0.0
45.35999989509583,-0.00439453125,-1.0126953125,0.08642578125,14.68000006675721,-0.06103515625,0.0,0.0
45.36499977111816,-0.00439453125,-1.0146484375,0.08349609375,14.684999942779534,0.0,0.0,0.0
45.36999988555908,-0.001953125,-1.02587890625,0.08642578125,14.69000005722046,0.0,0.06103515625,0.0
45.375,-0.00537109375,-1.013671875,0.091796875,14.695000171661375,0.0,0.06103515625,0.0
45.37999987602234,-0.00244140625,-1.01416015625,0.08251953125,14.700000047683716,0.0,0.06103515625,0.0
45.38499999046326,-0.001953125,-1.01611328125,0.08740234375,14.705000162124634,0.0,0.0,0.0
45.3899998664856,-0.00634765625,-1.01220703125,0.09423828125,14.71000003814698,0.0,0.244140625,0.0
45.394999980926514,-0.00341796875,-1.015625,0.08447265625,14.71500015258789,0.0,0.06103515625,0.0
45.39999985694885,-0.00732421875,-1.01025390625,0.08984375,14.72000002861023,0.0,0.06103515625,0.0
45.40499997138977,-0.00048828125,-1.0185546875,0.08251953125,14.725000143051147,0.0,0.1220703125,0.0
45.40999984741211,-0.0029296875,-1.0244140625,0.08837890625,14.730000019073486,0.0,0.0,0.0
45.41499996185303,-0.0087890625,-1.01318359375,0.095703125,14.735000133514404,0.0,0.0,0.0
45.419999837875366,-0.00244140625,-1.01220703125,0.07763671875,14.740000009536743,-0.06103515625,0.1220703125,0.0
45.42499995231629,-0.00341796875,-1.01708984375,0.08740234375,14.745000123977668,0.0,0.18310546875,0.0
45.42999982833862,-0.00146484375,-1.0234375,0.08447265625,14.75,0.0,0.18310546875,0.0
45.43499994277954,-0.00341796875,-1.009765625,0.0888671875,14.755000114440918,-0.06103515625,0.06103515625,0.0
45.43999981880188,-0.00048828125,-1.0224609375,0.087890625,14.759999990463257,0.0,0.0,0.0
45.4449999332428,-0.00341796875,-1.01318359375,0.08349609375,14.765000104904177,0.0,0.0,0.0
45.44999980926514,-0.00390625,-1.01416015625,0.08349609375,14.769999980926514,0.0,0.0,0.0
45.454999923706055,-0.00634765625,-1.02294921875,0.09326171875,14.775000095367432,-0.06103515625,0.0,0.0
45.4599997997284,-0.0029296875,-1.01611328125,0.08154296875,14.779999971389778,0.0,0.0,0.0
45.46499991416931,-0.0068359375,-1.009765625,0.09423828125,14.785000085830688,0.0,0.0,0.0
45.46999979019165,-0.00048828125,-1.02392578125,0.0830078125,14.789999961853027,0.0,0.0,0.0
45.47499990463257,-0.009765625,-1.00537109375,0.0927734375,14.795000076293944,0.0,-0.06103515625,0.0
45.47999978065491,-0.00390625,-1.01513671875,0.087890625,14.799999952316284,0.0,0.0,0.0
45.48499989509583,0.00341796875,-1.02978515625,0.07861328125,14.80500006675721,0.0,0.06103515625,0.0
45.48999977111816,-0.00830078125,-1.005859375,0.09716796875,14.809999942779534,0.0,0.06103515625,0.0
45.49499988555908,-0.00927734375,-1.00341796875,0.09423828125,14.81500005722046,0.0,0.0,0.0
45.5,0.0009765625,-1.02734375,0.07958984375,14.820000171661375,0.0,0.0,0.0
45.50499987602234,-0.0068359375,-1.017578125,0.0947265625,14.825000047683716,0.0,0.0,0.0
45.50999999046326,-0.001953125,-1.0146484375,0.0869140625,14.830000162124634,0.0,0.0,0.0
