t,x,y,z,time_from_sync,aligned_time,time_diff_ms,gyro_x,gyro_y,gyro_z
1341.7699999809265,0.9541015625,-0.556640625,-0.201171875,1310.001666824023,1310.0,1.666824023004665,4.21142578125,1.03759765625,5.92041015625
1341.7749998569489,1.1015625,0.03369140625,0.02392578125,1310.0066667000451,1310.005000114441,1.6665856041981897,-2.197265625,-1.28173828125,8.72802734375
1341.7799999713898,1.00537109375,-0.04541015625,-0.1142578125,1310.0116668144865,1310.0099999904637,1.6668240227772912,11.474609375,2.9296875,-7.75146484375
1341.784999847412,1.22998046875,0.02685546875,-0.0126953125,1310.0166666905086,1310.0150001049042,1.6665856044255634,1.28173828125,0.48828125,3.5400390625
1341.789999961853,0.984375,0.0986328125,-0.126953125,1310.0216668049495,1310.0199999809265,1.666824023004665,13.85498046875,3.90625,-6.7138671875
1341.7949998378754,1.15234375,-0.01904296875,0.0078125,1310.026666680972,1310.0250000953674,1.666585604652937,2.99072265625,-0.06103515625,9.1552734375
1341.7999999523165,1.0751953125,0.3203125,-0.08935546875,1310.031666795413,1310.0299999713898,1.6668240232320386,14.7705078125,3.173828125,0.1220703125
1341.8049998283386,0.86474609375,-0.47265625,-0.2021484375,1310.0366666714351,1310.0350000858307,1.6665856044255634,11.962890625,2.685546875,6.04248046875
1341.8099999427795,1.16455078125,0.32568359375,-0.18017578125,1310.041666785876,1310.039999961853,1.666824023004665,16.6015625,4.45556640625,-3.173828125
1341.814999818802,1.0087890625,-0.47265625,-0.18701171875,1310.0466666618986,1310.045000076294,1.666585604652937,8.48388671875,2.44140625,3.96728515625
1341.8199999332428,0.98193359375,0.357421875,-0.02392578125,1310.0516667763393,1310.0499999523165,1.6668240227772912,12.20703125,3.0517578125,-0.30517578125
1341.8249998092651,0.80810546875,-0.38671875,-0.02783203125,1310.0566666523616,1310.0550000667572,1.6665856044255634,9.765625,4.2724609375,-1.52587890625
1341.829999923706,1.13818359375,0.49169921875,0.0556640625,1310.0616667668023,1310.0599999427795,1.6668240227772912,11.29150390625,2.62451171875,-0.244140625
1341.8349997997284,0.73583984375,-0.42431640625,0.02734375,1310.0666666428249,1310.0650000572205,1.6665856044255634,11.77978515625,3.23486328125,1.0986328125
1341.8399999141693,1.1318359375,-0.0458984375,-0.08984375,1310.0716667572658,1310.0700001716614,1.6665856044255634,9.09423828125,1.220703125,7.01904296875
1341.8449997901917,0.8876953125,0.05810546875,-0.21240234375,1310.076666633288,1310.0750000476835,1.6665856044255634,16.6015625,4.8828125,-7.9345703125
1341.8499999046326,1.09423828125,-0.541015625,-0.09228515625,1310.081666747729,1310.0800001621246,1.6665856044255634,5.18798828125,1.40380859375,5.92041015625
1341.854999780655,1.10888671875,0.4248046875,-0.06591796875,1310.0866666237514,1310.085000038147,1.6665856044255634,14.0380859375,2.99072265625,1.28173828125
1341.8599998950958,0.83203125,-0.43701171875,-0.07861328125,1310.0916667381923,1310.090000152588,1.6665856044255634,9.27734375,3.0517578125,2.9296875
1341.8649997711182,1.09765625,0.30615234375,-0.134765625,1310.0966666142149,1310.0950000286102,1.666585604652937,17.9443359375,4.0283203125,-2.0751953125
1341.869999885559,1.03564453125,-0.51708984375,-0.197265625,1310.1016667286556,1310.1000001430511,1.6665856044255634,8.544921875,1.8310546875,8.85009765625
1341.875,1.037109375,-0.07080078125,0.03369140625,1310.1066668430965,1310.1050000190735,1.666824023004665,-1.64794921875,-0.244140625,4.33349609375
1341.8799998760223,0.89990234375,0.0849609375,-0.06591796875,1310.1116667191188,1310.1100001335144,1.6665856044255634,9.82666015625,3.5400390625,-5.55419921875
1341.8849999904633,1.1240234375,0.03955078125,0.01513671875,1310.1166668335595,1310.1150000095367,1.6668240227772912,4.5166015625,1.5869140625,4.638671875
1341.8899998664856,0.95849609375,-0.0078125,-0.17578125,1310.121666709582,1310.120000123978,1.6665856041981897,13.73291015625,3.7841796875,-0.3662109375
1341.8949999809265,1.072265625,-0.0048828125,-0.1943359375,1310.126666824023,1310.125,1.666824023004665,11.962890625,2.50244140625,4.39453125
1341.8999998569489,0.9560546875,0.05712890625,-0.20263671875,1310.1316667000451,1310.130000114441,1.6665856041981897,12.939453125,4.2724609375,-6.40869140625
1341.9049999713898,1.150390625,-0.13330078125,0.01953125,1310.1366668144865,1310.1349999904637,1.6668240227772912,-1.28173828125,-1.03759765625,8.23974609375
1341.909999847412,1.00537109375,0.14599609375,-0.10888671875,1310.1416666905086,1310.1400001049042,1.6665856044255634,10.986328125,3.72314453125,-6.89697265625
1341.914999961853,1.08837890625,-0.12744140625,0.04931640625,1310.1466668049495,1310.1449999809265,1.666824023004665,-1.77001953125,-0.18310546875,7.4462890625
1341.9199998378754,1.01708984375,0.10986328125,-0.14453125,1310.151666680972,1310.1500000953674,1.666585604652937,11.53564453125,4.150390625,-6.9580078125
1341.9249999523165,0.86962890625,-0.39501953125,-0.158203125,1310.156666795413,1310.1549999713898,1.6668240232320386,12.63427734375,4.0283203125,4.2724609375
1341.9299998283386,1.025390625,0.2490234375,-0.09228515625,1310.1616666714351,1310.1600000858307,1.6665856044255634,14.70947265625,2.86865234375,5.18798828125
1341.9349999427795,0.802734375,-0.35888671875,-0.17431640625,1310.166666785876,1310.164999961853,1.666824023004665,12.6953125,3.60107421875,0.0
1341.939999818802,1.13720703125,0.3271484375,0.01513671875,1310.1716666618986,1310.170000076294,1.666585604652937,8.4228515625,1.46484375,3.2958984375
1341.9449999332428,0.7470703125,-0.36572265625,-0.03515625,1310.1766667763393,1310.1749999523165,1.6668240227772912,10.68115234375,3.72314453125,-4.150390625
1341.9499998092651,1.044921875,-0.267578125,-0.06103515625,1310.1816666523616,1310.1800000667572,1.6665856044255634,2.74658203125,0.30517578125,9.521484375
1341.954999923706,1.001953125,0.29052734375,-0.12158203125,1310.1866667668023,1310.1849999427795,1.6668240227772912,13.7939453125,4.150390625,-5.4931640625
1341.9599997997284,1.19775390625,-0.466796875,-0.04638671875,1310.1916666428249,1310.1900000572205,1.6665856044255634,2.74658203125,-0.30517578125,11.71875
1341.9649999141693,1.04736328125,0.31591796875,-0.177734375,1310.1966667572658,1310.1950001716614,1.6665856044255634,18.24951171875,4.5166015625,-1.0986328125
1341.9699997901917,0.93701171875,-0.39111328125,-0.12744140625,1310.201666633288,1310.2000000476835,1.6665856044255634,4.39453125,0.9765625,7.8125
1341.9749999046326,1.080078125,0.21826171875,-0.2138671875,1310.206666747729,1310.2050001621246,1.6665856044255634,15.2587890625,3.96728515625,-7.32421875
1341.979999780655,1.18701171875,-0.283203125,-0.04541015625,1310.2116666237514,1310.210000038147,1.6665856044255634,-0.732421875,0.0,8.544921875
1341.9849998950958,0.9296875,0.30712890625,0.00732421875,1310.2166667381923,1310.215000152588,1.6665856044255634,11.41357421875,3.23486328125,0.3662109375
1341.9899997711182,1.03076171875,-0.55859375,-0.00390625,1310.2216666142149,1310.2200000286102,1.666585604652937,7.62939453125,1.40380859375,11.8408203125
1341.994999885559,1.1220703125,0.4287109375,-0.02734375,1310.2266667286556,1310.2250001430511,1.6665856044255634,19.10400390625,3.662109375,2.01416015625
1342.0,0.94384765625,0.00244140625,-0.05712890625,1310.2316668430965,1310.2300000190735,1.666824023004665,11.53564453125,3.23486328125,-7.99560546875
1342.0049998760223,0.9658203125,0.02783203125,0.0322265625,1310.2366667191188,1310.2350001335144,1.6665856044255634,5.2490234375,0.42724609375,7.99560546875
1342.0099999904633,0.83544921875,-0.13623046875,-0.1103515625,1310.2416668335595,1310.2400000095367,1.6668240227772912,10.55908203125,2.99072265625,-9.033203125
1342.0149998664856,1.171875,0.05322265625,0.001953125,1310.246666709582,1310.245000123978,1.6665856041981897,5.06591796875,0.67138671875,4.08935546875
1342.0199999809265,0.86181640625,-0.001953125,-0.1181640625,1310.251666824023,1310.25,1.666824023004665,12.8173828125,4.150390625,-10.6201171875
1342.0249998569489,0.94140625,-0.49658203125,-0.03662109375,1310.2566667000451,1310.255000114441,1.6665856041981897,8.544921875,2.197265625,7.32421875
1342.0299999713898,1.06396484375,0.38232421875,-0.09423828125,1310.2616668144865,1310.2599999904637,1.6668240227772912,17.27294921875,3.5400390625,-1.52587890625
1342.034999847412,0.947265625,-0.4091796875,-0.16943359375,1310.2666666905086,1310.2650001049042,1.6665856044255634,9.82666015625,2.3193359375,4.45556640625
1342.039999961853,1.12109375,0.18896484375,-0.1357421875,1310.2716668049495,1310.2699999809265,1.666824023004665,14.16015625,3.35693359375,-0.1220703125
1342.0449998378754,0.974609375,-0.21240234375,-0.11865234375,1310.276666680972,1310.2750000953674,1.666585604652937,6.7138671875,1.89208984375,3.90625
1342.0499999523165,0.9599609375,0.09716796875,0.01611328125,1310.281666795413,1310.2799999713898,1.6668240232320386,7.50732421875,2.3193359375,0.9765625
1342.0549998283386,0.91064453125,-0.146484375,0.0029296875,1310.2866666714351,1310.2850000858307,1.6665856044255634,9.521484375,2.74658203125,-2.9296875
1342.0599999427795,1.03515625,0.05908203125,-0.04052734375,1310.291666785876,1310.289999961853,1.666824023004665,10.25390625,2.44140625,2.38037109375
1342.064999818802,0.83837890625,-0.17578125,-0.0859375,1310.2966666618986,1310.295000076294,1.666585604652937,11.1083984375,2.99072265625,-0.54931640625
1342.0699999332428,1.03857421875,0.16943359375,-0.07080078125,1310.3016667763393,1310.2999999523165,1.6668240227772912,11.29150390625,2.8076171875,-0.6103515625
1342.0749998092651,0.9814453125,0.33984375,-0.119140625,1310.3066666523616,1310.3050000667572,1.6665856044255634,15.5029296875,4.0283203125,-4.39453125
1342.079999923706,1.03759765625,-0.576171875,-0.02099609375,1310.3116667668023,1310.3099999427795,1.6668240227772912,8.056640625,1.77001953125,8.056640625
1342.0849997997284,0.9921875,0.3359375,-0.080078125,1310.3166666428249,1310.3150000572205,1.6665856044255634,15.07568359375,3.5400390625,-4.39453125
1342.0899999141693,0.9921875,-0.498046875,-0.0517578125,1310.3216667572658,1310.3200001716614,1.6665856044255634,10.3759765625,1.953125,10.498046875
1342.0949997901917,0.99853515625,0.2470703125,-0.181640625,1310.326666633288,1310.3250000476835,1.6665856044255634,18.310546875,4.39453125,-3.2958984375
1342.0999999046326,0.88720703125,-0.12890625,-0.11669921875,1310.331666747729,1310.3300001621246,1.6665856044255634,11.04736328125,2.99072265625,-5.18798828125
1342.104999780655,1.04296875,0.0849609375,0.07666015625,1310.3366666237514,1310.335000038147,1.6665856044255634,2.86865234375,-0.48828125,6.40869140625
1342.1099998950958,0.84619140625,0.06689453125,-0.07177734375,1310.3416667381923,1310.340000152588,1.6665856044255634,9.58251953125,3.35693359375,-13.916015625
1342.1149997711182,1.08447265625,-0.1064453125,0.05810546875,1310.3466666142149,1310.3450000286102,1.666585604652937,1.28173828125,-0.67138671875,6.65283203125
1342.119999885559,0.798828125,-0.021484375,-0.15380859375,1310.3516667286556,1310.3500001430511,1.6665856044255634,11.29150390625,3.11279296875,-4.5166015625
1342.125,1.0458984375,-0.01611328125,-0.08544921875,1310.3566668430965,1310.3550000190735,1.666824023004665,8.36181640625,1.03759765625,4.150390625
1342.1299998760223,0.8330078125,0.09814453125,-0.205078125,1310.3616667191188,1310.3600001335144,1.6665856044255634,15.13671875,3.7841796875,-7.87353515625
1342.1349999904633,0.88037109375,-0.09765625,0.04150390625,1310.3666668335595,1310.3650000095367,1.6668240227772912,-2.50244140625,-1.64794921875,10.009765625
1342.1399998664856,0.8662109375,0.1083984375,-0.07666015625,1310.371666709582,1310.370000123978,1.6665856041981897,10.1318359375,2.62451171875,-8.7890625
1342.1449999809265,1.11181640625,-0.09130859375,0.04638671875,1310.376666824023,1310.375,1.666824023004665,-0.244140625,-1.28173828125,7.9345703125
1342.1499998569489,1.0029296875,0.0908203125,-0.09375,1310.3816667000451,1310.380000114441,1.6665856041981897,13.916015625,2.86865234375,2.5634765625
1342.1549999713898,0.875,-0.24462890625,-0.10986328125,1310.3866668144865,1310.3849999904637,1.6668240227772912,10.92529296875,2.25830078125,2.13623046875
1342.159999847412,0.87060546875,0.32373046875,-0.0087890625,1310.3916666905086,1310.3900001049042,1.6665856044255634,10.986328125,2.50244140625,-2.38037109375
1342.164999961853,0.65966796875,-0.39111328125,0.0634765625,1310.3966668049495,1310.3949999809265,1.666824023004665,8.1787109375,2.3193359375,2.50244140625
1342.1699998378754,0.99365234375,0.25244140625,-0.0205078125,1310.401666680972,1310.4000000953674,1.666585604652937,12.939453125,2.25830078125,1.77001953125
1342.1749999523165,0.69873046875,-0.38427734375,-0.04638671875,1310.406666795413,1310.4049999713898,1.6668240232320386,12.39013671875,2.74658203125,3.0517578125
1342.1799998283386,0.91162109375,0.17822265625,-0.12109375,1310.4116666714351,1310.4100000858307,1.6665856044255634,14.34326171875,3.35693359375,-2.38037109375
1342.1849999427795,0.83056640625,-0.3486328125,-0.0830078125,1310.416666785876,1310.414999961853,1.666824023004665,10.6201171875,2.62451171875,-0.48828125
1342.189999818802,0.951171875,0.197265625,-0.02587890625,1310.4216666618986,1310.420000076294,1.666585604652937,10.19287109375,1.953125,-0.732421875
1342.1949999332428,0.708984375,-0.2568359375,-0.0048828125,1310.4266667763393,1310.4249999523165,1.6668240227772912,10.1318359375,2.62451171875,-1.46484375
1342.1999998092651,1.08154296875,-0.25390625,-0.00732421875,1310.4316666523616,1310.4300000667572,1.6665856044255634,0.30517578125,-1.64794921875,8.544921875
1342.204999923706,0.89599609375,0.08447265625,-0.1689453125,1310.4366667668023,1310.4349999427795,1.6668240227772912,15.5029296875,2.86865234375,-2.38037109375
1342.2099997997284,1.06298828125,-0.16552734375,-0.05859375,1310.4416666428249,1310.4400000572205,1.6665856044255634,4.45556640625,0.244140625,4.39453125
1342.2149999141693,0.912109375,0.2138671875,-0.16650390625,1310.4466667572658,1310.4450001716614,1.6665856044255634,14.70947265625,2.44140625,-0.9765625
1342.2199997901917,1.10498046875,-0.4150390625,-0.029296875,1310.451666633288,1310.4500000476835,1.6665856044255634,2.25830078125,-0.79345703125,8.48388671875
1342.2249999046326,0.94775390625,-0.05078125,0.052734375,1310.456666747729,1310.4550001621246,1.6665856044255634,-0.244140625,-1.15966796875,5.2490234375
1342.229999780655,0.78173828125,-0.00732421875,-0.1171875,1310.4616666237514,1310.460000038147,1.6665856044255634,11.41357421875,2.01416015625,-6.9580078125
1342.2349998950958,1.015625,-0.02099609375,-0.0458984375,1310.4666667381923,1310.465000152588,1.6665856044255634,7.2021484375,-0.30517578125,5.126953125
1342.2399997711182,0.8017578125,-0.03369140625,-0.15478515625,1310.4716666142149,1310.4700000286102,1.666585604652937,12.3291015625,2.3193359375,-6.7138671875
1342.244999885559,0.9609375,-0.15673828125,0.021484375,1310.4766667286556,1310.4750001430511,1.6665856044255634,-1.03759765625,-1.64794921875,4.69970703125
1342.25,0.919921875,0.14111328125,-0.1591796875,1310.4816668430965,1310.4800000190735,1.666824023004665,10.986328125,2.86865234375,-7.6904296875
1342.2549998760223,1.037109375,-0.005859375,0.021484375,1310.4866667191188,1310.4850001335144,1.6665856044255634,-0.06103515625,-0.732421875,3.96728515625
1342.2599999904633,0.93896484375,-0.02978515625,-0.10009765625,1310.4916668335595,1310.4900000095367,1.6668240227772912,7.87353515625,1.52587890625,-6.53076171875
1342.2649998664856,1.0458984375,-0.0087890625,-0.01025390625,1310.496666709582,1310.495000123978,1.6665856041981897,5.79833984375,0.1220703125,1.708984375
1342.2699999809265,0.96044921875,0.068359375,-0.1318359375,1310.501666824023,1310.5,1.666824023004665,10.07080078125,1.64794921875,-7.568359375
1342.2749998569489,0.8525390625,-0.34716796875,-0.03515625,1310.5066667000451,1310.505000114441,1.6665856041981897,9.94873046875,1.64794921875,-1.64794921875
1342.2799999713898,0.94482421875,0.18505859375,-0.029296875,1310.5116668144865,1310.5099999904637,1.6668240227772912,12.51220703125,1.5869140625,0.48828125
1342.284999847412,0.73876953125,-0.40234375,-0.02734375,1310.5166666905086,1310.5150001049042,1.6665856044255634,10.8642578125,1.5869140625,-1.220703125
1342.289999961853,0.9541015625,0.3154296875,-0.08349609375,1310.5216668049495,1310.5199999809265,1.666824023004665,15.13671875,2.44140625,-1.77001953125
1342.2949998378754,0.759765625,-0.40380859375,-0.0966796875,1310.526666680972,1310.5250000953674,1.666585604652937,11.90185546875,1.953125,1.15966796875
1342.2999999523165,1.14453125,-0.45458984375,-0.00732421875,1310.531666795413,1310.5299999713898,1.6668240232320386,-0.91552734375,-2.9296875,10.19287109375
1342.3049998283386,0.884765625,0.375,-0.1533203125,1310.5366666714351,1310.5350000858307,1.6665856044255634,13.61083984375,3.173828125,-8.85009765625
1342.3099999427795,1.2041015625,-0.515625,-0.03369140625,1310.541666785876,1310.539999961853,1.666824023004665,1.46484375,-1.8310546875,12.14599609375
1342.314999818802,1.05859375,0.2197265625,-0.19482421875,1310.5466666618986,1310.545000076294,1.666585604652937,12.63427734375,1.8310546875,-3.96728515625
1342.3199999332428,1.1064453125,-0.40087890625,-0.07568359375,1310.5516667763393,1310.5499999523165,1.6668240227772912,6.77490234375,-0.6103515625,9.521484375
1342.3249998092651,0.94970703125,0.35009765625,-0.1435546875,1310.5566666523616,1310.5550000667572,1.6665856044255634,15.2587890625,2.685546875,-7.75146484375
1342.329999923706,1.14208984375,-0.4521484375,-0.05126953125,1310.5616667668023,1310.5599999427795,1.6668240227772912,3.72314453125,-2.197265625,8.60595703125
1342.3349997997284,0.93701171875,0.28857421875,-0.1630859375,1310.5666666428249,1310.5650000572205,1.6665856044255634,16.78466796875,2.0751953125,-2.13623046875
1342.3399999141693,0.95361328125,-0.4912109375,-0.13818359375,1310.5716667572658,1310.5700001716614,1.6665856044255634,7.14111328125,-0.6103515625,4.5166015625
1342.3449997901917,0.9619140625,0.16162109375,-0.1884765625,1310.576666633288,1310.5750000476835,1.6665856044255634,13.85498046875,1.46484375,-4.82177734375
1342.3499999046326,0.77392578125,-0.2255859375,-0.06103515625,1310.581666747729,1310.5800001621246,1.6665856044255634,11.41357421875,1.28173828125,-4.45556640625
1342.354999780655,0.97607421875,0.107421875,0.0693359375,1310.5866666237514,1310.585000038147,1.6665856044255634,-2.99072265625,-2.0751953125,0.48828125
1342.3599998950958,0.75341796875,-0.04931640625,0.068359375,1310.5916667381923,1310.590000152588,1.6665856044255634,9.033203125,1.220703125,-7.080078125
1342.3649997711182,1.04541015625,0.10107421875,0.05419921875,1310.5966666142149,1310.5950000286102,1.666585604652937,7.9345703125,-1.15966796875,5.43212890625
1342.369999885559,0.90771484375,-0.1279296875,-0.08837890625,1310.6016667286556,1310.6000001430511,1.6665856044255634,10.43701171875,0.42724609375,-3.23486328125
1342.375,0.83447265625,-0.2890625,-0.17041015625,1310.6066668430965,1310.6050000190735,1.666824023004665,12.451171875,0.732421875,-0.3662109375
1342.3799998760223,0.9697265625,0.3330078125,-0.0859375,1310.6116667191188,1310.6100001335144,1.6665856044255634,12.63427734375,1.28173828125,-3.72314453125
1342.3849999904633,0.73095703125,-0.33203125,-0.04443359375,1310.6166668335595,1310.6150000095367,1.6668240227772912,9.27734375,1.3427734375,-3.662109375
1342.3899998664856,0.94287109375,0.2919921875,0.03125,1310.621666709582,1310.620000123978,1.6665856041981897,9.8876953125,-0.18310546875,0.42724609375
1342.3949999809265,0.62158203125,-0.38671875,0.0498046875,1310.626666824023,1310.625,1.666824023004665,9.27734375,0.42724609375,-2.25830078125
1342.3999998569489,1.009765625,0.2470703125,-0.03466796875,1310.6316667000451,1310.630000114441,1.6665856041981897,12.87841796875,0.3662109375,0.244140625
1342.4049999713898,0.70751953125,-0.36376953125,-0.0205078125,1310.6366668144865,1310.6349999904637,1.6668240227772912,10.31494140625,0.54931640625,-3.72314453125
1342.409999847412,0.95849609375,0.13916015625,0.060546875,1310.6416666905086,1310.6400001049042,1.6665856044255634,6.40869140625,-1.40380859375,3.0517578125
1342.414999961853,0.81591796875,-0.14111328125,-0.017578125,1310.6466668049495,1310.6449999809265,1.666824023004665,7.9345703125,-0.18310546875,-9.3994140625
1342.4199998378754,1.138671875,0.2060546875,-0.0322265625,1310.651666680972,1310.6500000953674,1.666585604652937,10.009765625,-0.6103515625,1.220703125
1342.4249999523165,0.85546875,0.056640625,-0.21630859375,1310.656666795413,1310.6549999713898,1.6668240232320386,15.31982421875,0.42724609375,-1.708984375
1342.4299998283386,1.001953125,-0.22216796875,-0.09765625,1310.6616666714351,1310.6600000858307,1.6665856044255634,4.82177734375,-1.8310546875,0.54931640625
1342.4349999427795,1.01611328125,0.2294921875,-0.09228515625,1310.666666785876,1310.664999961853,1.666824023004665,11.41357421875,0.42724609375,-9.46044921875
1342.439999818802,1.14208984375,-0.47314453125,0.0634765625,1310.6716666618986,1310.670000076294,1.666585604652937,4.08935546875,-2.13623046875,5.67626953125
1342.4449999332428,0.9228515625,0.2958984375,-0.0595703125,1310.6766667763393,1310.6749999523165,1.6668240227772912,13.48876953125,0.91552734375,-3.0517578125
1342.4499998092651,0.82373046875,-0.1005859375,-0.0546875,1310.6816666523616,1310.6800000667572,1.6665856044255634,8.7890625,0.0,-4.2724609375
1342.454999923706,0.91650390625,0.1494140625,-0.0732421875,1310.6866667668023,1310.6849999427795,1.6668240227772912,12.5732421875,0.0,-0.79345703125
1342.4599997997284,0.72998046875,-0.22412109375,-0.15185546875,1310.6916666428249,1310.6900000572205,1.6665856044255634,15.13671875,0.79345703125,-6.04248046875
1342.4649999141693,0.88916015625,0.08740234375,-0.01904296875,1310.6966667572658,1310.6950001716614,1.6665856044255634,7.01904296875,-1.46484375,1.28173828125
1342.4699997901917,0.7880859375,-0.208984375,-0.04638671875,1310.701666633288,1310.7000000476835,1.6665856044255634,9.8876953125,0.06103515625,-9.09423828125
1342.4749999046326,1.09716796875,-0.14794921875,0.01806640625,1310.706666747729,1310.7050001621246,1.6665856044255634,-1.3427734375,-3.90625,6.2255859375
1342.479999780655,0.94775390625,0.01123046875,-0.06396484375,1310.7116666237514,1310.710000038147,1.6665856044255634,7.87353515625,-0.3662109375,-6.8359375
1342.4849998950958,1.0966796875,-0.1748046875,-0.0400390625,1310.7166667381923,1310.715000152588,1.6665856044255634,6.89697265625,-2.13623046875,4.82177734375
1342.4899997711182,0.9189453125,0.2919921875,-0.14453125,1310.7216666142149,1310.7200000286102,1.666585604652937,13.12255859375,1.0986328125,-11.04736328125
1342.494999885559,1.091796875,-0.37890625,-0.04541015625,1310.7266667286556,1310.7250001430511,1.6665856044255634,2.74658203125,-4.2724609375,11.16943359375
1342.5,0.927734375,0.17822265625,-0.052734375,1310.7316668430965,1310.7300000190735,1.666824023004665,13.48876953125,-1.40380859375,4.0283203125
1342.5049998760223,0.66943359375,-0.3271484375,-0.11669921875,1310.7366667191188,1310.7350001335144,1.6665856044255634,12.20703125,0.30517578125,-6.65283203125
1342.5099999904633,1.05517578125,0.2138671875,-0.02490234375,1310.7416668335595,1310.7400000095367,1.6668240227772912,7.87353515625,-1.8310546875,-0.79345703125
1342.5149998664856,0.74560546875,-0.21923828125,-0.044921875,1310.746666709582,1310.745000123978,1.6665856041981897,10.1318359375,0.1220703125,-9.033203125
1342.5199999809265,0.9404296875,0.1318359375,0.0615234375,1310.751666824023,1310.75,1.666824023004665,5.37109375,-2.25830078125,3.173828125
1342.5249998569489,0.77880859375,-0.09912109375,-0.0146484375,1310.7566667000451,1310.755000114441,1.6665856041981897,8.7890625,-0.9765625,-9.09423828125
1342.5299999713898,1.115234375,0.14013671875,0.04736328125,1310.7616668144865,1310.7599999904637,1.6668240227772912,5.06591796875,-2.5634765625,2.8076171875
1342.534999847412,0.89501953125,-0.2158203125,-0.08984375,1310.7666666905086,1310.7650001049042,1.6665856044255634,9.27734375,-1.3427734375,-6.4697265625
1342.539999961853,0.93994140625,-0.0126953125,-0.05419921875,1310.7716668049495,1310.7699999809265,1.666824023004665,8.11767578125,-2.13623046875,0.9765625
1342.5449998378754,0.84228515625,-0.1943359375,-0.13671875,1310.776666680972,1310.7750000953674,1.666585604652937,11.41357421875,-1.0986328125,-3.5400390625
1342.5499999523165,1.14111328125,-0.3857421875,-0.06201171875,1310.781666795413,1310.7799999713898,1.6668240232320386,3.7841796875,-3.47900390625,3.7841796875
1342.5549998283386,0.9560546875,0.322265625,-0.1025390625,1310.7866666714351,1310.7850000858307,1.6665856044255634,13.916015625,-0.54931640625,-4.33349609375
1342.5599999427795,0.98681640625,-0.5361328125,-0.0703125,1310.791666785876,1310.789999961853,1.666824023004665,7.38525390625,-2.99072265625,9.765625
1342.564999818802,0.96142578125,0.2177734375,-0.17529296875,1310.7966666618986,1310.795000076294,1.666585604652937,15.9912109375,-0.244140625,-5.7373046875
1342.5699999332428,1.103515625,-0.5078125,-0.130859375,1310.8016667763393,1310.7999999523165,1.6668240227772912,6.16455078125,-3.5400390625,9.765625
1342.5749998092651,1.07177734375,-0.22900390625,-0.02392578125,1310.8066666523616,1310.8050000667572,1.6665856044255634,-0.8544921875,-5.06591796875,7.080078125
1342.579999923706,0.96435546875,0.27734375,-0.16357421875,1310.8116667668023,1310.8099999427795,1.6668240227772912,11.3525390625,0.54931640625,-12.51220703125
1342.5849997997284,1.19482421875,-0.208984375,0.00830078125,1310.8166666428249,1310.8150000572205,1.6665856044255634,-3.173828125,-5.615234375,6.4697265625
1342.5899999141693,0.92041015625,0.13134765625,-0.1796875,1310.8216667572658,1310.8200001716614,1.6665856044255634,11.04736328125,-0.18310546875,-7.568359375
1342.5949997901917,1.048828125,-0.23095703125,-0.14306640625,1310.826666633288,1310.8250000476835,1.6665856044255634,5.67626953125,-3.0517578125,4.39453125
1342.5999999046326,1.03857421875,0.22314453125,-0.189453125,1310.831666747729,1310.8300001621246,1.6665856044255634,13.61083984375,0.0,-11.90185546875
1342.604999780655,1.14892578125,-0.35205078125,-0.03662109375,1310.8366666237514,1310.835000038147,1.6665856044255634,0.18310546875,-4.39453125,7.32421875
1342.6099998950958,0.990234375,0.32470703125,-0.15576171875,1310.8416667381923,1310.840000152588,1.6665856044255634,13.97705078125,0.0,-8.36181640625
1342.6149997711182,1.10009765625,-0.56298828125,-0.06640625,1310.8466666142149,1310.8450000286102,1.666585604652937,4.82177734375,-4.150390625,9.3994140625
1342.619999885559,0.9384765625,0.30908203125,-0.1494140625,1310.8516667286556,1310.8500001430511,1.6665856044255634,15.80810546875,-0.244140625,-5.67626953125
1342.625,0.85302734375,-0.2080078125,-0.14404296875,1310.8566668430965,1310.8550000190735,1.666824023004665,13.73291015625,-0.244140625,-7.62939453125
1342.6299998760223,0.95166015625,0.0947265625,0.01025390625,1310.8616667191188,1310.8600001335144,1.6665856044255634,5.92041015625,-3.2958984375,4.638671875
1342.6349999904633,0.87744140625,-0.2294921875,-0.08740234375,1310.8666668335595,1310.8650000095367,1.6668240227772912,9.1552734375,-1.46484375,-6.8359375
1342.6399998664856,1.1171875,0.1611328125,0.037109375,1310.871666709582,1310.870000123978,1.6665856041981897,2.38037109375,-3.41796875,-0.3662109375
1342.6449999809265,0.84423828125,-0.18017578125,-0.03271484375,1310.876666824023,1310.875,1.666824023004665,8.72802734375,-2.13623046875,-5.92041015625
1342.6499998569489,1.03857421875,-0.19287109375,-0.18017578125,1310.8816667000451,1310.880000114441,1.6665856041981897,8.30078125,-2.62451171875,3.84521484375
1342.6549999713898,0.9921875,0.251953125,-0.15673828125,1310.8866668144865,1310.8849999904637,1.6668240227772912,12.6953125,-0.79345703125,-5.55419921875
1342.659999847412,1.07958984375,-0.46630859375,-0.0693359375,1310.8916666905086,1310.8900001049042,1.6665856044255634,9.46044921875,-1.708984375,0.48828125
1342.664999961853,0.97705078125,0.22216796875,-0.017578125,1310.8966668049495,1310.8949999809265,1.666824023004665,9.6435546875,-1.89208984375,-1.89208984375
1342.6699998378754,0.962890625,-0.505859375,-0.0732421875,1310.901666680972,1310.9000000953674,1.666585604652937,10.80322265625,-1.40380859375,-4.39453125
1342.6749999523165,1.0185546875,0.28271484375,-0.1318359375,1310.906666795413,1310.9049999713898,1.6668240232320386,16.11328125,-0.244140625,-3.72314453125
1342.6799998283386,0.8876953125,-0.4345703125,-0.18359375,1310.9116666714351,1310.9100000858307,1.6665856044255634,11.77978515625,-0.79345703125,0.54931640625
1342.6849999427795,0.9970703125,0.31982421875,-0.044921875,1310.916666785876,1310.914999961853,1.666824023004665,12.3291015625,-1.46484375,0.18310546875
1342.689999818802,0.7431640625,-0.42138671875,-0.072265625,1310.9216666618986,1310.920000076294,1.666585604652937,10.92529296875,-0.54931640625,-2.3193359375
1342.6949999332428,1.1181640625,0.38916015625,0.01220703125,1310.9266667763393,1310.9249999523165,1.6668240227772912,9.09423828125,-2.9296875,0.1220703125
1342.6999998092651,0.92724609375,0.234375,-0.2216796875,1310.9316666523616,1310.9300000667572,1.6665856044255634,14.22119140625,0.48828125,-9.70458984375
1342.704999923706,1.10595703125,-0.28662109375,-0.0869140625,1310.9366667668023,1310.9349999427795,1.6668240227772912,2.38037109375,-3.7841796875,5.37109375
1342.7099997997284,0.97216796875,0.2353515625,-0.1337890625,1310.9416666428249,1310.9400000572205,1.6665856044255634,12.939453125,-0.42724609375,-9.8876953125
1342.7149999141693,1.1220703125,-0.3701171875,0.00244140625,1310.9466667572658,1310.9450001716614,1.6665856044255634,0.244140625,-4.5166015625,5.67626953125
1342.7199997901917,1.009765625,0.33203125,-0.1357421875,1310.951666633288,1310.9500000476835,1.6665856044255634,16.2353515625,-0.6103515625,-3.84521484375
1342.7249999046326,0.80615234375,-0.173828125,-0.18896484375,1310.956666747729,1310.9550001621246,1.6665856044255634,13.5498046875,-1.220703125,-5.2490234375
1342.729999780655,1.03662109375,0.138671875,-0.12451171875,1310.9616666237514,1310.960000038147,1.6665856044255634,10.07080078125,-2.25830078125,-2.62451171875
1342.7349998950958,0.876953125,-0.32421875,-0.115234375,1310.9666667381923,1310.965000152588,1.6665856044255634,10.3759765625,-1.15966796875,-5.9814453125
1342.7399997711182,1.0224609375,0.10009765625,0.0673828125,1310.9716666142149,1310.9700000286102,1.666585604652937,0.244140625,-4.150390625,-0.67138671875
1342.744999885559,0.82666015625,-0.03857421875,0.02685546875,1310.9766667286556,1310.9750001430511,1.6665856044255634,7.01904296875,-1.953125,-11.23046875
1342.75,1.03662109375,0.19287109375,0.07275390625,1310.9816668430965,1310.9800000190735,1.666824023004665,5.79833984375,-2.8076171875,-0.244140625
1342.7549998760223,0.95947265625,-0.1650390625,-0.11083984375,1310.9866667191188,1310.9850001335144,1.6665856044255634,11.3525390625,-1.89208984375,-6.591796875
1342.7599999904633,1.0927734375,0.0400390625,-0.17626953125,1310.9916668335595,1310.9900000095367,1.6668240227772912,13.48876953125,-1.8310546875,1.40380859375
1342.7649998664856,0.75634765625,-0.25244140625,-0.2177734375,1310.996666709582,1310.995000123978,1.6665856041981897,11.41357421875,-0.91552734375,-5.0048828125
1342.7699999809265,1.04052734375,0.18798828125,0.02197265625,1311.001666824023,1311.0,1.666824023004665,4.638671875,-3.662109375,-0.18310546875
1342.7749998569489,1.08447265625,0.43359375,-0.08349609375,1311.0066667000451,1311.005000114441,1.6665856041981897,13.00048828125,-0.48828125,-6.8359375
1342.7799999713898,0.8896484375,-0.51904296875,-0.03857421875,1311.0116668144865,1311.0099999904637,1.6668240227772912,9.21630859375,-1.708984375,5.31005859375
1342.784999847412,1.005859375,0.3505859375,-0.154296875,1311.0166666905086,1311.0150001049042,1.6665856044255634,18.49365234375,-0.244140625,-5.615234375
1342.789999961853,0.99462890625,-0.7177734375,-0.16943359375,1311.0216668049495,1311.0199999809265,1.666824023004665,9.58251953125,-2.9296875,12.75634765625
1342.7949998378754,1.0556640625,0.37451171875,-0.1494140625,1311.026666680972,1311.0250000953674,1.666585604652937,15.625,-0.48828125,-4.82177734375
1342.7999999523165,0.87109375,0.0703125,-0.07861328125,1311.031666795413,1311.0299999713898,1.6668240232320386,12.0849609375,-0.30517578125,-9.1552734375
1342.8049998283386,1.1533203125,-0.4482421875,-0.01220703125,1311.0366666714351,1311.0350000858307,1.6665856044255634,4.2724609375,-4.21142578125,7.50732421875
1342.8099999427795,1.03271484375,0.18603515625,-0.19140625,1311.041666785876,1311.039999961853,1.666824023004665,15.31982421875,-0.9765625,-3.72314453125
1342.814999818802,1.0771484375,-0.18994140625,-0.17041015625,1311.0466666618986,1311.045000076294,1.666585604652937,5.9814453125,-3.173828125,1.40380859375
1342.8199999332428,0.90625,0.02685546875,-0.19091796875,1311.0516667763393,1311.0499999523165,1.6668240227772912,13.73291015625,-0.732421875,-9.3994140625
1342.8249998092651,1.1943359375,-0.39990234375,-0.01708984375,1311.0566666523616,1311.0550000667572,1.6665856044255634,1.3427734375,-4.2724609375,2.50244140625
1342.829999923706,1.0400390625,0.28515625,-0.0859375,1311.0616667668023,1311.0599999427795,1.6668240227772912,12.75634765625,-0.79345703125,-6.7138671875
1342.8349997997284,0.99853515625,-0.44189453125,-0.0712890625,1311.0666666428249,1311.0650000572205,1.6665856044255634,10.6201171875,-2.50244140625,4.7607421875
1342.8399999141693,1.0341796875,0.23486328125,-0.205078125,1311.0716667572658,1311.0700001716614,1.6665856044255634,18.1884765625,-0.3662109375,-2.25830078125
1342.8449997901917,1.087890625,-0.33642578125,-0.11083984375,1311.076666633288,1311.0750000476835,1.6665856044255634,3.173828125,-4.0283203125,7.6904296875
1342.8499999046326,1.02001953125,0.1025390625,0.0107421875,1311.081666747729,1311.0800001621246,1.6665856044255634,3.41796875,-3.72314453125,-0.67138671875
1342.854999780655,0.83056640625,-0.0078125,-0.0458984375,1311.0866666237514,1311.085000038147,1.6665856044255634,10.55908203125,-0.91552734375,-13.12255859375
1342.8599998950958,1.1513671875,0.02294921875,0.044921875,1311.0916667381923,1311.090000152588,1.6665856044255634,1.46484375,-4.7607421875,3.84521484375
1342.8649997711182,0.9462890625,-0.18212890625,-0.13818359375,1311.0966666142149,1311.0950000286102,1.666585604652937,9.3994140625,-1.5869140625,-6.4697265625
1342.869999885559,1.14599609375,0.00439453125,-0.09814453125,1311.1016667286556,1311.1000001430511,1.6665856044255634,8.1787109375,-3.5400390625,3.662109375
1342.875,0.9853515625,-0.0029296875,-0.16455078125,1311.1066668430965,1311.1050000190735,1.666824023004665,11.53564453125,-0.9765625,-10.92529296875
1342.8799998760223,1.13623046875,0.13037109375,0.02392578125,1311.1116667191188,1311.1100001335144,1.6665856044255634,3.2958984375,-4.8828125,4.69970703125
1342.8849999904633,0.7861328125,0.08642578125,-0.13720703125,1311.1166668335595,1311.1150000095367,1.6668240227772912,14.22119140625,0.0,-16.357421875
1342.8899998664856,1.0439453125,-0.09130859375,-0.01416015625,1311.121666709582,1311.120000123978,1.6665856041981897,1.8310546875,-4.94384765625,4.82177734375
1342.8949999809265,0.9130859375,-0.01025390625,-0.185546875,1311.126666824023,1311.125,1.666824023004665,11.16943359375,-1.03759765625,-12.8173828125
1342.8999998569489,1.03515625,-0.61962890625,-0.142578125,1311.1316667000451,1311.130000114441,1.6665856041981897,7.50732421875,-2.5634765625,6.2255859375
1342.9049999713898,1.048828125,0.40966796875,-0.060546875,1311.1366668144865,1311.1349999904637,1.6668240227772912,14.2822265625,-0.9765625,-3.90625
1342.909999847412,0.86962890625,-0.3330078125,-0.10546875,1311.1416666905086,1311.1400001049042,1.6665856044255634,8.9111328125,-0.91552734375,-2.74658203125
1342.914999961853,1.16162109375,0.43505859375,-0.06640625,1311.1466668049495,1311.1449999809265,1.666824023004665,14.2822265625,-1.03759765625,-5.37109375
1342.9199998378754,0.82861328125,-0.5009765625,-0.12109375,1311.151666680972,1311.1500000953674,1.666585604652937,8.72802734375,-2.25830078125,4.33349609375
1342.9249999523165,1.11083984375,-0.17333984375,-0.1064453125,1311.156666795413,1311.1549999713898,1.6668240232320386,4.638671875,-3.23486328125,0.732421875
1342.9299998283386,0.98046875,0.1162109375,-0.193359375,1311.1616666714351,1311.1600000858307,1.6665856044255634,13.36669921875,-0.244140625,-11.16943359375
1342.9349999427795,1.12158203125,-0.1357421875,0.001953125,1311.166666785876,1311.164999961853,1.666824023004665,-2.38037109375,-5.06591796875,2.9296875
1342.939999818802,1.01416015625,0.2216796875,-0.162109375,1311.1716666618986,1311.170000076294,1.666585604652937,12.0849609375,-0.3662109375,-9.8876953125
1342.9449999332428,1.0908203125,-0.044921875,0.00732421875,1311.1766667763393,1311.1749999523165,1.6668240227772912,1.28173828125,-4.638671875,2.5634765625
1342.9499998092651,0.96533203125,0.05224609375,-0.18310546875,1311.1816666523616,1311.1800000667572,1.6665856044255634,12.26806640625,-0.91552734375,-8.23974609375
1342.954999923706,1.08203125,-0.146484375,-0.10986328125,1311.1866667668023,1311.1849999427795,1.6668240227772912,5.9814453125,-3.7841796875,4.638671875
1342.9599997997284,0.892578125,0.11767578125,-0.212890625,1311.1916666428249,1311.1900000572205,1.6665856044255634,15.07568359375,0.0,-13.24462890625
1342.9649999141693,1.08935546875,-0.29931640625,-0.01416015625,1311.1966667572658,1311.1950001716614,1.6665856044255634,-4.150390625,-6.34765625,7.14111328125
1342.9699997901917,0.95166015625,0.3017578125,-0.1865234375,1311.201666633288,1311.2000000476835,1.6665856044255634,12.87841796875,0.8544921875,-13.5498046875
1342.9749999046326,0.69970703125,-0.3984375,-0.044921875,1311.206666747729,1311.2050001621246,1.6665856044255634,11.04736328125,-0.67138671875,0.67138671875
1342.979999780655,1.05126953125,0.166015625,-0.11572265625,1311.2116666237514,1311.210000038147,1.6665856044255634,14.5263671875,-1.15966796875,0.0
1342.9849998950958,0.86865234375,-0.25634765625,-0.21337890625,1311.2166667381923,1311.215000152588,1.6665856044255634,10.80322265625,-1.3427734375,-2.3193359375
1342.9899997711182,1.03466796875,0.287109375,-0.06591796875,1311.2216666142149,1311.2200000286102,1.666585604652937,10.7421875,-1.52587890625,-3.173828125
1342.994999885559,0.8359375,-0.28515625,-0.07568359375,1311.2266667286556,1311.2250001430511,1.6665856044255634,9.8876953125,-0.3662109375,-9.1552734375
1343.0,0.72412109375,-0.1884765625,-0.01953125,1311.2316668430965,1311.2300000190735,1.666824023004665,9.70458984375,-0.91552734375,-8.11767578125
1343.0049998760223,1.078125,0.17138671875,-0.12646484375,1311.2366667191188,1311.2350001335144,1.6665856044255634,13.85498046875,-0.79345703125,0.0
1343.0099999904633,0.94775390625,-0.27978515625,-0.2744140625,1311.2416668335595,1311.2400000095367,1.6668240227772912,14.70947265625,0.0,-4.21142578125
1343.0149998664856,0.98876953125,0.19873046875,-0.00927734375,1311.246666709582,1311.245000123978,1.6665856041981897,5.4931640625,-2.74658203125,0.48828125
1343.0199999809265,0.841796875,-0.26220703125,-0.05810546875,1311.251666824023,1311.25,1.666824023004665,10.43701171875,-0.3662109375,-8.4228515625
1343.0249998569489,1.2021484375,0.212890625,0.03955078125,1311.2566667000451,1311.255000114441,1.6665856041981897,2.9296875,-2.8076171875,-0.91552734375
1343.0299999713898,0.88671875,-0.25244140625,0.01806640625,1311.2616668144865,1311.2599999904637,1.6668240227772912,7.568359375,-1.708984375,-6.53076171875
1343.034999847412,1.14501953125,0.02392578125,-0.021484375,1311.2666666905086,1311.2650001049042,1.6665856044255634,7.62939453125,-1.5869140625,-1.953125
1343.039999961853,0.9697265625,0.00634765625,-0.1572265625,1311.2716668049495,1311.2699999809265,1.666824023004665,13.7939453125,0.0,-7.87353515625
1343.0449998378754,1.03369140625,0.14208984375,-0.08056640625,1311.276666680972,1311.2750000953674,1.666585604652937,9.27734375,-2.197265625,3.173828125
1343.0499999523165,1.04833984375,0.3857421875,-0.126953125,1311.281666795413,1311.2799999713898,1.6668240232320386,15.44189453125,-0.1220703125,-9.27734375
1343.0549998283386,1.072265625,-0.609375,-0.09326171875,1311.2866666714351,1311.2850000858307,1.6665856044255634,4.21142578125,-3.662109375,8.056640625
1343.0599999427795,1.0341796875,0.3388671875,-0.146484375,1311.291666785876,1311.289999961853,1.666824023004665,15.869140625,0.0,-9.82666015625
1343.064999818802,1.2109375,-0.49462890625,-0.13720703125,1311.2966666618986,1311.295000076294,1.666585604652937,4.82177734375,-3.2958984375,8.6669921875
1343.0699999332428,1.01416015625,0.3896484375,-0.14208984375,1311.3016667763393,1311.2999999523165,1.6668240227772912,16.41845703125,0.244140625,-6.53076171875
1343.0749998092651,0.822265625,0.07958984375,-0.083984375,1311.3066666523616,1311.3050000667572,1.6665856044255634,11.16943359375,0.06103515625,-14.58740234375
1343.079999923706,1.22802734375,0.07958984375,-0.00390625,1311.3116667668023,1311.3099999427795,1.6668240227772912,2.0751953125,-4.150390625,4.82177734375
1343.0849997997284,0.9072265625,-0.15185546875,-0.171875,1311.3166666428249,1311.3150000572205,1.6665856044255634,12.14599609375,-0.732421875,-6.89697265625
1343.0899999141693,1.1298828125,-0.0244140625,-0.1142578125,1311.3216667572658,1311.3200001716614,1.6665856044255634,7.32421875,-2.0751953125,2.13623046875
1343.0949997901917,0.91064453125,-0.02880859375,-0.193359375,1311.326666633288,1311.3250000476835,1.6665856044255634,12.0849609375,-0.30517578125,-10.009765625
1343.0999999046326,1.09033203125,0.0673828125,0.0419921875,1311.331666747729,1311.3300001621246,1.6665856044255634,-1.15966796875,-4.45556640625,3.35693359375
1343.104999780655,0.8310546875,0.15771484375,-0.072265625,1311.3366666237514,1311.335000038147,1.6665856044255634,12.39013671875,0.0,-13.916015625
1343.1099998950958,0.98486328125,-0.12646484375,0.05126953125,1311.3416667381923,1311.340000152588,1.6665856044255634,-0.8544921875,-4.150390625,2.50244140625
1343.1149997711182,0.8759765625,0.00537109375,-0.12939453125,1311.3466666142149,1311.3450000286102,1.666585604652937,10.80322265625,-0.8544921875,-4.39453125
1343.119999885559,1.14697265625,-0.046875,-0.1005859375,1311.3516667286556,1311.3500001430511,1.6665856044255634,8.1787109375,-2.01416015625,-0.8544921875
1343.125,0.96728515625,0.17626953125,-0.0869140625,1311.3566668430965,1311.3550000190735,1.666824023004665,12.5732421875,-0.8544921875,-1.0986328125
1343.1299998760223,0.9130859375,-0.33984375,-0.09375,1311.3616667191188,1311.3600001335144,1.6665856044255634,9.6435546875,-1.89208984375,0.18310546875
1343.1349999904633,1.08203125,0.35986328125,-0.03759765625,1311.3666668335595,1311.3650000095367,1.6668240227772912,11.3525390625,-1.03759765625,-5.06591796875
1343.1399998664856,0.8896484375,-0.39599609375,-0.107421875,1311.371666709582,1311.370000123978,1.6665856041981897,10.92529296875,-1.28173828125,3.41796875
1343.1449999809265,1.07470703125,0.23095703125,-0.15869140625,1311.376666824023,1311.375,1.666824023004665,14.7705078125,0.30517578125,-6.65283203125
1343.1499998569489,0.94970703125,-0.02001953125,-0.17431640625,1311.3816667000451,1311.380000114441,1.6665856041981897,11.53564453125,-0.30517578125,-10.009765625
1343.1549999713898,1.1484375,-0.03662109375,0.04296875,1311.3866668144865,1311.3849999904637,1.6668240227772912,-0.18310546875,-4.69970703125,5.4931640625
1343.159999847412,1.02490234375,0.19140625,-0.119140625,1311.3916666905086,1311.3900001049042,1.6665856044255634,11.1083984375,-0.244140625,-12.02392578125
1343.164999961853,1.11279296875,-0.11669921875,-0.021484375,1311.3966668049495,1311.3949999809265,1.666824023004665,2.62451171875,-3.72314453125,5.0048828125
1343.1699998378754,0.78173828125,-0.14599609375,-0.10693359375,1311.401666680972,1311.4000000953674,1.666585604652937,15.13671875,0.732421875,-11.23046875
1343.1749999523165,1.24755859375,-0.12890625,-0.111328125,1311.406666795413,1311.4049999713898,1.6668240232320386,2.44140625,-3.84521484375,5.79833984375
1343.1799998283386,0.82421875,-0.158203125,-0.20703125,1311.4116666714351,1311.4100000858307,1.6665856044255634,17.4560546875,1.28173828125,-15.31982421875
1343.1849999427795,1.1064453125,0.0625,0.02880859375,1311.416666785876,1311.414999961853,1.666824023004665,-7.62939453125,-5.4931640625,5.79833984375
1343.189999818802,0.85302734375,0.02783203125,-0.0810546875,1311.4216666618986,1311.420000076294,1.666585604652937,11.71875,-0.06103515625,-13.671875
1343.1949999332428,1.20458984375,-0.009765625,-0.0390625,1311.4266667763393,1311.4249999523165,1.6668240227772912,3.41796875,-3.0517578125,5.06591796875
1343.1999998092651,1.1650390625,0.1650390625,-0.1572265625,1311.4316666523616,1311.4300000667572,1.6665856044255634,14.0380859375,-0.48828125,-2.9296875
1343.204999923706,1.0791015625,-0.146484375,-0.1455078125,1311.4366667668023,1311.4349999427795,1.6668240227772912,6.77490234375,-1.28173828125,-2.685546875
1343.2099997997284,1.08740234375,0.2998046875,-0.04736328125,1311.4416666428249,1311.4400000572205,1.6665856044255634,9.33837890625,-0.42724609375,-6.4697265625
1343.2149999141693,0.9853515625,-0.30419921875,-0.041015625,1311.4466667572658,1311.4450001716614,1.6665856044255634,9.3994140625,-0.3662109375,-3.2958984375
1343.2199997901917,1.0673828125,0.19677734375,-0.03955078125,1311.451666633288,1311.4500000476835,1.6665856044255634,11.90185546875,-0.79345703125,0.91552734375
1343.2249999046326,1.0419921875,0.05322265625,-0.2158203125,1311.456666747729,1311.4550001621246,1.6665856044255634,12.5732421875,0.18310546875,-7.32421875
1343.229999780655,1.21435546875,0.01318359375,-0.05859375,1311.4616666237514,1311.460000038147,1.6665856044255634,5.4931640625,-2.62451171875,1.708984375
1343.2349998950958,0.94140625,0.14892578125,-0.17626953125,1311.4666667381923,1311.465000152588,1.6665856044255634,14.404296875,0.67138671875,-10.43701171875
1343.2399997711182,1.1611328125,-0.09033203125,-0.01708984375,1311.4716666142149,1311.4700000286102,1.666585604652937,-0.06103515625,-3.96728515625,3.84521484375
1343.244999885559,1.03466796875,0.25390625,-0.12548828125,1311.4766667286556,1311.4750001430511,1.6665856044255634,10.986328125,0.42724609375,-11.77978515625
1343.25,1.21240234375,-0.12939453125,-0.00390625,1311.4816668430965,1311.4800000190735,1.666824023004665,-1.15966796875,-4.82177734375,7.99560546875
1343.2549998760223,1.0595703125,0.1142578125,-0.20654296875,1311.4866667191188,1311.4850001335144,1.6665856044255634,12.14599609375,0.54931640625,-9.33837890625
1343.2599999904633,1.181640625,-0.1630859375,-0.0849609375,1311.4916668335595,1311.4900000095367,1.6668240227772912,3.2958984375,-2.9296875,4.7607421875
1343.2649998664856,1.0361328125,0.26025390625,-0.15478515625,1311.496666709582,1311.495000123978,1.6665856041981897,13.427734375,0.732421875,-12.39013671875
1343.2699999809265,1.24853515625,-0.251953125,0.0068359375,1311.501666824023,1311.5,1.666824023004665,-2.197265625,-5.06591796875,8.36181640625
1343.2749998569489,1.07373046875,0.2724609375,-0.02392578125,1311.5066667000451,1311.505000114441,1.6665856041981897,11.3525390625,-1.52587890625,4.21142578125
1343.2799999713898,0.8349609375,-0.365234375,-0.11572265625,1311.5116668144865,1311.5099999904637,1.6668240227772912,12.20703125,-0.1220703125,-1.52587890625
1343.284999847412,1.10693359375,0.1748046875,-0.111328125,1311.5166666905086,1311.5150001049042,1.6665856044255634,12.20703125,-0.79345703125,-1.89208984375
1343.289999961853,0.990234375,-0.28271484375,-0.15771484375,1311.5216668049495,1311.5199999809265,1.666824023004665,9.82666015625,-0.30517578125,-3.41796875
1343.2949998378754,1.0,0.13525390625,0.02294921875,1311.526666680972,1311.5250000953674,1.666585604652937,5.4931640625,-2.01416015625,1.64794921875
1343.2999999523165,0.87353515625,-0.09521484375,-0.0537109375,1311.531666795413,1311.5299999713898,1.6668240232320386,10.07080078125,-0.244140625,-9.033203125
1343.3049998283386,1.0927734375,0.22119140625,0.01220703125,1311.5366666714351,1311.5350000858307,1.6665856044255634,7.14111328125,-1.708984375,2.01416015625
1343.3099999427795,0.8544921875,-0.23779296875,-0.0478515625,1311.541666785876,1311.539999961853,1.666824023004665,10.8642578125,-0.48828125,-4.5166015625
1343.314999818802,1.0810546875,0.04150390625,-0.076171875,1311.5466666618986,1311.545000076294,1.666585604652937,9.27734375,-1.0986328125,0.3662109375
1343.3199999332428,0.93359375,-0.12548828125,-0.17822265625,1311.5516667763393,1311.5499999523165,1.6668240227772912,10.55908203125,-0.67138671875,-1.8310546875
1343.3249998092651,1.1513671875,-0.3671875,-0.0615234375,1311.5566666523616,1311.5550000667572,1.6665856044255634,3.41796875,-3.173828125,5.2490234375
1343.329999923706,0.9814453125,0.279296875,-0.09326171875,1311.5616667668023,1311.5599999427795,1.6668240227772912,13.12255859375,-0.06103515625,-3.84521484375
1343.3349997997284,0.9619140625,-0.25537109375,-0.02734375,1311.5666666428249,1311.5650000572205,1.6665856044255634,3.60107421875,-2.62451171875,5.18798828125
1343.3399999141693,0.978515625,0.169921875,-0.18798828125,1311.5716667572658,1311.5700001716614,1.6665856044255634,15.56396484375,0.0,-5.4931640625
1343.3449997901917,1.083984375,0.00732421875,-0.0986328125,1311.576666633288,1311.5750000476835,1.6665856044255634,5.126953125,-3.23486328125,8.056640625
1343.3499999046326,0.95947265625,0.16015625,-0.041015625,1311.581666747729,1311.5800001621246,1.6665856044255634,8.23974609375,-1.8310546875,1.708984375
1343.354999780655,0.82177734375,-0.27392578125,-0.09912109375,1311.5866666237514,1311.585000038147,1.6665856044255634,11.41357421875,0.06103515625,-6.04248046875
1343.3599998950958,1.12060546875,0.30224609375,0.015625,1311.5916667381923,1311.590000152588,1.6665856044255634,5.67626953125,-1.64794921875,-0.3662109375
1343.3649997711182,0.8125,-0.21240234375,-0.00341796875,1311.5966666142149,1311.5950000286102,1.666585604652937,9.27734375,-0.42724609375,-5.31005859375
1343.369999885559,1.0263671875,0.2392578125,-0.09765625,1311.6016667286556,1311.6000001430511,1.6665856044255634,15.0146484375,0.0,-0.42724609375
1343.375,0.83203125,-0.275390625,-0.18212890625,1311.6066668430965,1311.6050000190735,1.666824023004665,14.34326171875,0.732421875,-6.8359375
1343.3799998760223,0.93505859375,0.32470703125,-0.08837890625,1311.6116667191188,1311.6100001335144,1.6665856044255634,15.19775390625,0.06103515625,-1.5869140625
1343.3849999904633,0.83056640625,-0.37890625,-0.12890625,1311.6166668335595,1311.6150000095367,1.6668240227772912,9.3994140625,0.30517578125,-4.2724609375
1343.3899998664856,1.07373046875,0.22021484375,0.001953125,1311.621666709582,1311.620000123978,1.6665856041981897,5.67626953125,-1.89208984375,1.52587890625
1343.3949999809265,0.701171875,-0.2509765625,-0.064453125,1311.626666824023,1311.625,1.666824023004665,11.16943359375,0.6103515625,-7.32421875
1343.3999998569489,1.12158203125,-0.212890625,-0.14501953125,1311.6316667000451,1311.630000114441,1.6665856041981897,3.173828125,-2.99072265625,6.77490234375
1343.4049999713898,0.93359375,0.287109375,-0.19677734375,1311.6366668144865,1311.6349999904637,1.6668240227772912,18.798828125,2.13623046875,-11.5966796875
1343.409999847412,1.05224609375,-0.35498046875,-0.0419921875,1311.6416666905086,1311.6400001049042,1.6665856044255634,-5.0048828125,-4.150390625,5.126953125
1343.414999961853,1.0078125,0.41015625,-0.12646484375,1311.6466668049495,1311.6449999809265,1.666824023004665,14.34326171875,1.52587890625,-10.7421875
1343.4199998378754,1.0751953125,-0.34814453125,-0.1298828125,1311.651666680972,1311.6500000953674,1.666585604652937,3.72314453125,-2.74658203125,7.32421875
1343.4249999523165,1.05859375,0.10595703125,-0.09765625,1311.656666795413,1311.6549999713898,1.6668240232320386,10.43701171875,0.0,-2.197265625
1343.4299998283386,0.90625,-0.1015625,-0.12158203125,1311.6616666714351,1311.6600000858307,1.6665856044255634,9.58251953125,-0.18310546875,-3.2958984375
1343.4349999427795,1.0234375,0.26318359375,-0.0048828125,1311.666666785876,1311.664999961853,1.666824023004665,6.591796875,-0.48828125,-3.0517578125
1343.439999818802,0.7822265625,-0.119140625,-0.05712890625,1311.6716666618986,1311.670000076294,1.666585604652937,10.8642578125,1.03759765625,-8.7890625
1343.4449999332428,0.95068359375,0.25146484375,-0.00830078125,1311.6766667763393,1311.6749999523165,1.6668240227772912,11.474609375,-0.18310546875,-0.79345703125
1343.4499998092651,0.69677734375,-0.40185546875,-0.11328125,1311.6816666523616,1311.6800000667572,1.6665856044255634,13.0615234375,0.8544921875,-2.99072265625
1343.454999923706,1.06884765625,0.23779296875,-0.0927734375,1311.6866667668023,1311.6849999427795,1.6668240227772912,14.892578125,0.0,1.64794921875
1343.4599997997284,0.8935546875,-0.28955078125,-0.2060546875,1311.6916666428249,1311.6900000572205,1.6665856044255634,11.1083984375,0.30517578125,-2.44140625
1343.4649999141693,1.00732421875,0.1826171875,0.0263671875,1311.6966667572658,1311.6950001716614,1.6665856044255634,3.23486328125,-2.0751953125,2.01416015625
1343.4699997901917,0.77734375,-0.029296875,-0.06005859375,1311.701666633288,1311.7000000476835,1.6665856044255634,11.04736328125,1.220703125,-11.16943359375
1343.4749999046326,1.1123046875,-0.61474609375,-0.115234375,1311.706666747729,1311.7050001621246,1.6665856044255634,4.2724609375,-2.13623046875,11.77978515625
1343.479999780655,1.08447265625,0.28369140625,-0.16357421875,1311.7116666237514,1311.710000038147,1.6665856044255634,15.625,1.3427734375,-4.82177734375
1343.4849998950958,1.0087890625,-0.39990234375,-0.14111328125,1311.7166667381923,1311.715000152588,1.6665856044255634,6.16455078125,-1.46484375,4.5166015625
1343.4899997711182,1.10595703125,0.37158203125,-0.1142578125,1311.7216666142149,1311.7200000286102,1.666585604652937,14.16015625,1.40380859375,-8.36181640625
1343.494999885559,1.19775390625,-0.23828125,0.01318359375,1311.7266667286556,1311.7250001430511,1.6665856044255634,4.69970703125,-1.15966796875,4.82177734375
1343.5,0.99951171875,-0.0224609375,-0.01416015625,1311.7316668430965,1311.7300000190735,1.666824023004665,4.45556640625,-1.953125,2.38037109375
1343.5049998760223,0.84716796875,-0.04736328125,-0.17822265625,1311.7366667191188,1311.7350001335144,1.6665856044255634,12.939453125,0.67138671875,-4.45556640625
1343.5099999904633,1.14453125,0.056640625,-0.08740234375,1311.7416668335595,1311.7400000095367,1.6668240227772912,8.6669921875,-0.9765625,0.1220703125
1343.5149998664856,0.892578125,-0.39599609375,-0.20947265625,1311.746666709582,1311.745000123978,1.6665856041981897,14.404296875,1.03759765625,-7.62939453125
1343.5199999809265,1.06982421875,0.14111328125,-0.0283203125,1311.751666824023,1311.75,1.666824023004665,8.23974609375,-0.67138671875,-0.79345703125
1343.5249998569489,0.90673828125,-0.20458984375,-0.046875,1311.7566667000451,1311.755000114441,1.6665856041981897,10.55908203125,0.9765625,-8.6669921875
1343.5299999713898,1.16552734375,0.3515625,0.00732421875,1311.7616668144865,1311.7599999904637,1.6668240227772912,8.056640625,-0.06103515625,-2.74658203125
1343.534999847412,0.859375,-0.26123046875,-0.03662109375,1311.7666666905086,1311.7650001049042,1.6665856044255634,11.41357421875,0.54931640625,-1.64794921875
1343.539999961853,1.095703125,0.1240234375,-0.11474609375,1311.7716668049495,1311.7699999809265,1.666824023004665,13.48876953125,0.18310546875,0.8544921875
1343.5449998378754,0.95751953125,-0.087890625,-0.1865234375,1311.776666680972,1311.7750000953674,1.666585604652937,10.6201171875,0.54931640625,-3.0517578125
1343.5499999523165,1.2001953125,-0.6376953125,-0.07177734375,1311.781666795413,1311.7799999713898,1.6668240232320386,3.35693359375,-2.99072265625,11.53564453125
1343.5549998283386,1.06201171875,0.412109375,-0.203125,1311.7866666714351,1311.7850000858307,1.6665856044255634,19.34814453125,2.44140625,-7.01904296875
1343.5599999427795,1.0966796875,-0.296875,-0.13671875,1311.791666785876,1311.789999961853,1.666824023004665,2.3193359375,-2.3193359375,8.60595703125
1343.564999818802,1.00927734375,0.37255859375,-0.20947265625,1311.7966666618986,1311.795000076294,1.666585604652937,18.5546875,2.13623046875,-9.46044921875
1343.5699999332428,1.12109375,-0.57421875,-0.13037109375,1311.8016667763393,1311.7999999523165,1.6668240227772912,-0.18310546875,-3.5400390625,15.07568359375
1343.5749998092651,1.072265625,0.20947265625,0.013671875,1311.8066666523616,1311.8050000667572,1.6665856044255634,2.685546875,-2.8076171875,5.43212890625
1343.579999923706,0.73486328125,-0.091796875,-0.06591796875,1311.8116667668023,1311.8099999427795,1.6668240227772912,11.53564453125,1.64794921875,-11.71875
1343.5849997997284,1.21240234375,0.10205078125,0.04638671875,1311.8166666428249,1311.8150000572205,1.6665856044255634,1.28173828125,-2.0751953125,5.37109375
1343.5899999141693,1.0322265625,-0.072265625,-0.1640625,1311.8216667572658,1311.8200001716614,1.6665856044255634,11.3525390625,0.30517578125,-5.67626953125
1343.5949997901917,1.13427734375,-0.0068359375,-0.1552734375,1311.826666633288,1311.8250000476835,1.6665856044255634,9.70458984375,-0.9765625,5.9814453125
1343.5999999046326,0.96484375,-0.0087890625,-0.2939453125,1311.831666747729,1311.8300001621246,1.6665856044255634,15.869140625,1.89208984375,-6.103515625
1343.604999780655,1.12744140625,0.09228515625,-0.00390625,1311.8366666237514,1311.835000038147,1.6665856044255634,0.732421875,-3.2958984375,3.90625
1343.6099998950958,0.9453125,0.01806640625,-0.119140625,1311.8416667381923,1311.840000152588,1.6665856044255634,10.7421875,1.46484375,-9.09423828125
1343.6149997711182,1.07470703125,-0.02734375,0.03662109375,1311.8466666142149,1311.8450000286102,1.666585604652937,0.06103515625,-2.44140625,1.77001953125
1343.619999885559,0.98974609375,0.03564453125,-0.16015625,1311.8516667286556,1311.8500001430511,1.6665856044255634,12.75634765625,1.03759765625,-5.55419921875
1343.625,1.06103515625,-0.31591796875,-0.2333984375,1311.8566668430965,1311.8550000190735,1.666824023004665,7.4462890625,-0.79345703125,6.77490234375
1343.6299998760223,1.0439453125,0.25390625,-0.1171875,1311.8616667191188,1311.8600001335144,1.6665856044255634,14.7705078125,1.3427734375,-2.5634765625
1343.6349999904633,1.01513671875,-0.34326171875,-0.1591796875,1311.8666668335595,1311.8650000095367,1.6668240227772912,5.37109375,-0.9765625,4.33349609375
1343.6399998664856,1.11328125,0.4658203125,-0.09521484375,1311.871666709582,1311.870000123978,1.6665856041981897,16.05224609375,2.01416015625,-6.34765625
1343.6449999809265,1.06201171875,-0.490234375,-0.24169921875,1311.876666824023,1311.875,1.666824023004665,7.14111328125,-0.8544921875,7.62939453125
1343.6499998569489,1.12939453125,0.23291015625,-0.13623046875,1311.8816667000451,1311.880000114441,1.6665856041981897,13.00048828125,2.01416015625,-3.35693359375
1343.6549999713898,0.99755859375,-0.2978515625,-0.22265625,1311.8866668144865,1311.8849999904637,1.6668240227772912,7.50732421875,0.30517578125,3.173828125
1343.659999847412,1.0439453125,0.38427734375,-0.07861328125,1311.8916666905086,1311.8900001049042,1.6665856044255634,14.46533203125,2.38037109375,-4.5166015625
1343.664999961853,1.0234375,-0.328125,-0.1064453125,1311.8966668049495,1311.8949999809265,1.666824023004665,8.60595703125,1.15966796875,-0.06103515625
1343.6699998378754,1.0595703125,0.2822265625,-0.02001953125,1311.901666680972,1311.9000000953674,1.666585604652937,10.19287109375,1.0986328125,3.47900390625
1343.6749999523165,1.00244140625,0.2587890625,-0.2412109375,1311.906666795413,1311.9049999713898,1.6668240232320386,19.4091796875,3.662109375,-8.60595703125
1343.6799998283386,1.15087890625,-0.19482421875,-0.14013671875,1311.9116666714351,1311.9100000858307,1.6665856044255634,2.99072265625,-1.5869140625,9.82666015625
1343.6849999427795,0.9638671875,0.146484375,-0.2265625,1311.916666785876,1311.914999961853,1.666824023004665,14.83154296875,2.5634765625,-4.94384765625
1343.689999818802,0.9892578125,-0.25,-0.01220703125,1311.9216666618986,1311.920000076294,1.666585604652937,1.28173828125,-0.6103515625,4.150390625
1343.6949999332428,1.00634765625,0.34716796875,-0.11572265625,1311.9266667763393,1311.9249999523165,1.6668240227772912,13.36669921875,2.86865234375,-8.48388671875
1343.6999998092651,0.865234375,-0.208984375,-0.12744140625,1311.9316666523616,1311.9300000667572,1.6665856044255634,13.916015625,1.5869140625,-1.28173828125
1343.704999923706,1.1044921875,0.03125,-0.17529296875,1311.9366667668023,1311.9349999427795,1.6668240227772912,12.6953125,1.220703125,2.197265625
1343.7099997997284,0.912109375,-0.15087890625,-0.26708984375,1311.9416666428249,1311.9400000572205,1.6665856044255634,10.80322265625,1.220703125,3.11279296875
1343.7149999141693,1.04150390625,0.25927734375,-0.06298828125,1311.9466667572658,1311.9450001716614,1.6665856044255634,9.27734375,1.28173828125,-3.173828125
1343.7199997901917,0.935546875,-0.31103515625,-0.05078125,1311.951666633288,1311.9500000476835,1.6665856044255634,7.75146484375,1.46484375,-1.46484375
1343.7249999046326,1.025390625,0.32666015625,-0.0009765625,1311.956666747729,1311.9550001621246,1.6665856044255634,7.9345703125,1.52587890625,-1.8310546875
1343.729999780655,0.6298828125,-0.29296875,-0.06787109375,1311.9616666237514,1311.960000038147,1.6665856044255634,13.36669921875,2.62451171875,-2.01416015625
1343.7349998950958,0.8916015625,0.38037109375,-0.09423828125,1311.9666667381923,1311.965000152588,1.6665856044255634,21.728515625,3.90625,-3.84521484375
1343.7399997711182,0.8349609375,-0.4921875,-0.23046875,1311.9716666142149,1311.9700000286102,1.666585604652937,10.1318359375,1.77001953125,2.5634765625
1343.744999885559,1.0439453125,0.36083984375,-0.02001953125,1311.9766667286556,1311.9750001430511,1.6665856044255634,9.09423828125,1.3427734375,-0.48828125
1343.75,0.98876953125,0.4140625,-0.21044921875,1311.9816668430965,1311.9800000190735,1.666824023004665,19.59228515625,4.82177734375,-10.19287109375
1343.7549998760223,1.12109375,-0.298828125,-0.11083984375,1311.9866667191188,1311.9850001335144,1.6665856044255634,-2.01416015625,-2.50244140625,11.65771484375
1343.7599999904633,0.97412109375,0.27783203125,-0.19921875,1311.9916668335595,1311.9900000095367,1.6668240227772912,16.54052734375,3.84521484375,-10.68115234375
1343.7649998664856,1.0537109375,-0.31396484375,-0.09423828125,1311.996666709582,1311.995000123978,1.6665856041981897,-1.15966796875,-1.28173828125,8.7890625
1343.7699999809265,0.9873046875,0.443359375,-0.15478515625,1312.001666824023,1312.0,1.666824023004665,18.06640625,4.0283203125,-10.009765625
1343.7749998569489,0.76171875,-0.0859375,-0.13330078125,1312.0066667000451,1312.005000114441,1.6665856041981897,14.70947265625,3.2958984375,-10.8642578125
1343.7799999713898,1.10400390625,0.0087890625,-0.01513671875,1312.0116668144865,1312.0099999904637,1.6668240227772912,4.45556640625,-0.42724609375,7.9345703125
1343.784999847412,0.84228515625,-0.06201171875,-0.21044921875,1312.0166666905086,1312.0150001049042,1.6665856044255634,14.95361328125,2.74658203125,-5.43212890625
1343.789999961853,1.0556640625,0.10595703125,-0.0869140625,1312.0216668049495,1312.0199999809265,1.666824023004665,7.62939453125,0.30517578125,5.37109375
1343.7949998378754,0.869140625,-0.09521484375,-0.23486328125,1312.026666680972,1312.0250000953674,1.666585604652937,12.939453125,2.74658203125,-5.43212890625
1343.7999999523165,1.01708984375,0.060546875,0.04541015625,1312.031666795413,1312.0299999713898,1.6668240232320386,-0.6103515625,-1.5869140625,3.2958984375
1343.8049998283386,0.88623046875,0.0361328125,-0.0322265625,1312.0366666714351,1312.0350000858307,1.6665856044255634,11.04736328125,2.62451171875,-8.48388671875
1343.8099999427795,1.16552734375,0.0478515625,0.0146484375,1312.041666785876,1312.039999961853,1.666824023004665,3.7841796875,-0.48828125,6.591796875
1343.814999818802,1.01123046875,-0.0927734375,-0.21435546875,1312.0466666618986,1312.045000076294,1.666585604652937,14.95361328125,2.685546875,-3.72314453125
1343.8199999332428,1.1708984375,0.03369140625,-0.1416015625,1312.0516667763393,1312.0499999523165,1.6668240227772912,7.99560546875,0.91552734375,3.11279296875
1343.8249998092651,1.0185546875,0.341796875,-0.12451171875,1312.0566666523616,1312.0550000667572,1.6665856044255634,14.7705078125,3.60107421875,-8.36181640625
1343.829999923706,1.1044921875,-0.4375,-0.12451171875,1312.0616667668023,1312.0599999427795,1.6668240227772912,2.99072265625,-0.42724609375,8.11767578125
1343.8349997997284,1.05029296875,0.35888671875,-0.1650390625,1312.0666666428249,1312.0650000572205,1.6665856044255634,16.29638671875,3.47900390625,-4.7607421875
1343.8399999141693,1.08251953125,-0.2177734375,-0.0703125,1312.0716667572658,1312.0700001716614,1.6665856044255634,6.103515625,0.06103515625,10.19287109375
1343.8449997901917,0.95458984375,0.12890625,-0.20703125,1312.076666633288,1312.0750000476835,1.6665856044255634,14.95361328125,3.96728515625,-8.6669921875
1343.8499999046326,0.94775390625,-0.3115234375,-0.1787109375,1312.081666747729,1312.0800001621246,1.6665856044255634,12.0849609375,3.11279296875,-1.28173828125
1343.854999780655,1.0751953125,0.2666015625,0.0302734375,1312.0866666237514,1312.085000038147,1.6665856044255634,-3.11279296875,-1.64794921875,8.056640625
1343.8599998950958,0.71923828125,-0.20263671875,-0.02392578125,1312.0916667381923,1312.090000152588,1.6665856044255634,11.53564453125,3.41796875,-5.7373046875
1343.8649997711182,1.12646484375,0.279296875,-0.00390625,1312.0966666142149,1312.0950000286102,1.666585604652937,9.521484375,0.9765625,4.94384765625
1343.869999885559,0.84326171875,-0.2685546875,-0.1552734375,1312.1016667286556,1312.1000001430511,1.6665856044255634,13.916015625,3.2958984375,-2.197265625
1343.875,1.14453125,0.12841796875,-0.13818359375,1312.1066668430965,1312.1050000190735,1.666824023004665,11.3525390625,1.64794921875,3.23486328125
1343.8799998760223,0.95263671875,-0.12451171875,-0.25341796875,1312.1116667191188,1312.1100001335144,1.6665856044255634,12.0849609375,3.0517578125,-4.45556640625
1343.8849999904633,1.1064453125,0.18994140625,-0.0009765625,1312.1166668335595,1312.1150000095367,1.6668240227772912,5.18798828125,0.6103515625,3.7841796875
1343.8899998664856,0.8681640625,-0.107421875,-0.06201171875,1312.121666709582,1312.120000123978,1.6665856041981897,11.53564453125,3.662109375,-8.30078125
1343.8949999809265,1.05615234375,0.12744140625,0.044921875,1312.126666824023,1312.125,1.666824023004665,4.5166015625,0.30517578125,6.591796875
1343.8999998569489,1.09912109375,0.3115234375,-0.19482421875,1312.1316667000451,1312.130000114441,1.6665856041981897,20.263671875,4.150390625,-3.35693359375
1343.9049999713898,1.06640625,-0.3828125,-0.17138671875,1312.1366668144865,1312.1349999904637,1.6668240227772912,3.173828125,-0.42724609375,12.39013671875
1343.909999847412,1.02294921875,0.34619140625,-0.1640625,1312.1416666905086,1312.1400001049042,1.6665856044255634,17.7001953125,4.82177734375,-9.033203125
1343.914999961853,1.1064453125,-0.58984375,-0.05078125,1312.1466668049495,1312.1449999809265,1.666824023004665,-0.54931640625,-0.6103515625,11.04736328125
1343.9199998378754,1.13134765625,0.48583984375,-0.076171875,1312.151666680972,1312.1500000953674,1.666585604652937,14.83154296875,3.72314453125,-6.103515625
1343.9249999523165,0.8408203125,-0.20361328125,-0.10009765625,1312.156666795413,1312.1549999713898,1.6668240232320386,13.916015625,3.173828125,-5.92041015625
1343.9299998283386,1.10498046875,0.09814453125,-0.115234375,1312.1616666714351,1312.1600000858307,1.6665856044255634,13.12255859375,1.46484375,5.67626953125
1343.9349999427795,0.900390625,-0.109375,-0.27783203125,1312.166666785876,1312.164999961853,1.666824023004665,14.22119140625,3.41796875,-7.080078125
1343.939999818802,1.18310546875,0.22119140625,0.0498046875,1312.1716666618986,1312.170000076294,1.666585604652937,0.1220703125,-1.5869140625,6.4697265625
1343.9449999332428,0.80517578125,-0.05859375,-0.0947265625,1312.1766667763393,1312.1749999523165,1.6668240227772912,13.916015625,3.23486328125,-13.00048828125
1343.9499998092651,1.2275390625,0.12646484375,0.0390625,1312.1816666523616,1312.1800000667572,1.6665856044255634,2.86865234375,-0.91552734375,7.2021484375
1343.954999923706,0.73095703125,-0.11083984375,-0.13916015625,1312.1866667668023,1312.1849999427795,1.6668240227772912,15.93017578125,4.150390625,-9.765625
1343.9599997997284,1.173828125,0.0791015625,-0.0625,1312.1916666428249,1312.1900000572205,1.6665856044255634,8.11767578125,0.06103515625,8.1787109375
1343.9649999141693,0.8857421875,0.04296875,-0.27490234375,1312.1966667572658,1312.1950001716614,1.6665856044255634,19.10400390625,5.43212890625,-12.20703125
1343.9699997901917,1.1435546875,-0.04931640625,-0.00244140625,1312.201666633288,1312.2000000476835,1.6665856044255634,-6.34765625,-2.62451171875,8.9111328125
1343.9749999046326,1.07861328125,0.52685546875,-0.08642578125,1312.206666747729,1312.2050001621246,1.6665856044255634,12.87841796875,3.173828125,-2.9296875
1343.979999780655,1.09765625,-0.6240234375,-0.1416015625,1312.2116666237514,1312.210000038147,1.6665856044255634,13.00048828125,3.84521484375,7.38525390625
1343.9849998950958,1.05517578125,0.21484375,-0.28955078125,1312.2166667381923,1312.215000152588,1.6665856044255634,23.13232421875,4.94384765625,-3.0517578125
1343.9899997711182,1.1123046875,-0.26220703125,-0.21728515625,1312.2216666142149,1312.2200000286102,1.666585604652937,4.39453125,0.67138671875,8.85009765625
1343.994999885559,1.0849609375,0.3515625,-0.2041015625,1312.2266667286556,1312.2250001430511,1.6665856044255634,17.4560546875,5.06591796875,-10.31494140625
1344.0,1.25,-0.05224609375,-0.1142578125,1312.2316668430965,1312.2300000190735,1.666824023004665,5.79833984375,0.1220703125,9.70458984375
1344.0049998760223,0.90673828125,0.091796875,-0.263671875,1312.2366667191188,1312.2350001335144,1.6665856044255634,18.73779296875,5.31005859375,-9.1552734375
1344.0099999904633,1.14111328125,-0.1259765625,-0.0556640625,1312.2416668335595,1312.2400000095367,1.6668240227772912,-1.0986328125,-1.15966796875,10.43701171875
1344.0149998664856,0.9501953125,0.20556640625,-0.19580078125,1312.246666709582,1312.245000123978,1.6665856041981897,16.54052734375,4.82177734375,-10.55908203125
1344.0199999809265,1.2509765625,-0.03515625,-0.01123046875,1312.251666824023,1312.25,1.666824023004665,-5.18798828125,-1.89208984375,10.8642578125
1344.0249998569489,1.01513671875,0.04296875,-0.1728515625,1312.2566667000451,1312.255000114441,1.6665856041981897,12.5732421875,3.90625,-8.85009765625
1344.0299999713898,1.16064453125,-0.1669921875,-0.0537109375,1312.2616668144865,1312.2599999904637,1.6668240227772912,2.62451171875,0.18310546875,8.97216796875
1344.034999847412,1.0517578125,0.25634765625,-0.1943359375,1312.2666666905086,1312.2650001049042,1.6665856044255634,15.9912109375,5.4931640625,-11.41357421875
1344.039999961853,1.2431640625,-0.27734375,-0.021484375,1312.2716668049495,1312.2699999809265,1.666824023004665,-3.41796875,-1.220703125,12.8173828125
1344.0449998378754,1.01611328125,0.4091796875,-0.16845703125,1312.276666680972,1312.2750000953674,1.666585604652937,21.54541015625,5.79833984375,-11.65771484375
1344.0499999523165,0.78955078125,-0.41162109375,-0.240234375,1312.281666795413,1312.2799999713898,1.6668240232320386,13.3056640625,4.2724609375,0.3662109375
1344.0549998283386,1.10302734375,0.2099609375,-0.1279296875,1312.2866666714351,1312.2850000858307,1.6665856044255634,14.2822265625,2.86865234375,2.197265625
1344.0599999427795,0.91748046875,-0.251953125,-0.25,1312.291666785876,1312.289999961853,1.666824023004665,11.29150390625,3.5400390625,-2.38037109375
1344.064999818802,1.0576171875,0.162109375,0.04443359375,1312.2966666618986,1312.295000076294,1.666585604652937,0.06103515625,0.9765625,2.38037109375
1344.0699999332428,0.8193359375,-0.115234375,-0.01513671875,1312.3016667763393,1312.2999999523165,1.6668240227772912,10.009765625,3.72314453125,-9.521484375
1344.0749998092651,1.15966796875,0.1845703125,0.09912109375,1312.3066666523616,1312.3050000667572,1.6665856044255634,3.72314453125,1.46484375,2.9296875
1344.079999923706,0.83349609375,-0.19970703125,-0.0166015625,1312.3116667668023,1312.3099999427795,1.6668240227772912,11.77978515625,2.62451171875,-0.732421875
1344.0849997997284,1.08740234375,0.01611328125,-0.12158203125,1312.3166666428249,1312.3150000572205,1.6665856044255634,12.63427734375,2.685546875,2.86865234375
1344.0899999141693,0.982421875,-0.0810546875,-0.2041015625,1312.3216667572658,1312.3200001716614,1.6665856044255634,13.73291015625,3.35693359375,-0.3662109375
1344.0949997901917,1.0537109375,0.15576171875,0.00634765625,1312.326666633288,1312.3250000476835,1.6665856044255634,7.87353515625,2.01416015625,3.60107421875
1344.0999999046326,0.97216796875,0.30029296875,-0.140625,1312.331666747729,1312.3300001621246,1.6665856044255634,15.2587890625,4.5166015625,-4.638671875
1344.104999780655,1.03564453125,-0.5947265625,-0.05908203125,1312.3366666237514,1312.335000038147,1.6665856044255634,4.8828125,0.54931640625,12.451171875
1344.1099998950958,0.97265625,0.3818359375,-0.1806640625,1312.3416667381923,1312.340000152588,1.6665856044255634,17.7001953125,5.18798828125,-5.615234375
1344.1149997711182,1.12939453125,-0.4951171875,-0.1435546875,1312.3466666142149,1312.3450000286102,1.666585604652937,3.23486328125,-0.732421875,14.5263671875
1344.119999885559,1.001953125,0.44140625,-0.12890625,1312.3516667286556,1312.3500001430511,1.6665856044255634,16.66259765625,5.2490234375,-7.87353515625
1344.125,0.7890625,-0.0498046875,-0.06396484375,1312.3566668430965,1312.3550000190735,1.666824023004665,11.53564453125,3.47900390625,-11.29150390625
1344.1299998760223,1.1806640625,0.111328125,0.05078125,1312.3616667191188,1312.3600001335144,1.6665856044255634,2.50244140625,-0.30517578125,11.16943359375
1344.1349999904633,0.85107421875,-0.17529296875,-0.14404296875,1312.3666668335595,1312.3650000095367,1.6668240227772912,13.85498046875,3.41796875,-6.53076171875
1344.1399998664856,1.1220703125,0.013671875,-0.0849609375,1312.371666709582,1312.370000123978,1.6665856041981897,7.87353515625,0.67138671875,8.1787109375
1344.1449999809265,0.8017578125,0.02587890625,-0.2666015625,1312.376666824023,1312.375,1.666824023004665,17.02880859375,5.126953125,-8.85009765625
1344.1499998569489,1.08349609375,0.00341796875,0.04150390625,1312.3816667000451,1312.380000114441,1.6665856041981897,-4.7607421875,-1.5869140625,8.7890625
1344.1549999713898,0.80029296875,0.2373046875,-0.1064453125,1312.3866668144865,1312.3849999904637,1.6668240227772912,14.0380859375,4.57763671875,-16.29638671875
1344.159999847412,1.1416015625,-0.23388671875,0.076171875,1312.3916666905086,1312.3900001049042,1.6665856044255634,-5.859375,-1.8310546875,12.39013671875
1344.164999961853,0.96728515625,0.123046875,-0.14599609375,1312.3966668049495,1312.3949999809265,1.666824023004665,13.85498046875,4.2724609375,-8.7890625
1344.1699998378754,1.169921875,-0.16015625,-0.01123046875,1312.401666680972,1312.4000000953674,1.666585604652937,2.99072265625,0.0,9.70458984375
1344.1749999523165,1.05126953125,0.40478515625,-0.06103515625,1312.406666795413,1312.4049999713898,1.6668240232320386,18.00537109375,3.47900390625,1.15966796875
1344.1799998283386,0.77392578125,-0.5146484375,-0.17724609375,1312.4116666714351,1312.4100000858307,1.6665856044255634,10.498046875,2.44140625,5.06591796875
1344.1849999427795,1.0927734375,0.47021484375,-0.02880859375,1312.416666785876,1312.414999961853,1.666824023004665,14.34326171875,3.11279296875,-1.708984375
1344.189999818802,0.8115234375,-0.517578125,-0.123046875,1312.4216666618986,1312.420000076294,1.666585604652937,11.23046875,2.62451171875,7.62939453125
1344.1949999332428,1.09375,0.24169921875,-0.09716796875,1312.4266667763393,1312.4249999523165,1.6668240227772912,14.5263671875,3.173828125,-0.6103515625
1344.1999998092651,0.923828125,0.16455078125,-0.150390625,1312.4316666523616,1312.4300000667572,1.6665856044255634,14.6484375,3.7841796875,-7.75146484375
1344.204999923706,1.173828125,-0.21533203125,0.01025390625,1312.4366667668023,1312.4349999427795,1.6668240227772912,-2.0751953125,-1.77001953125,11.5966796875
1344.2099997997284,0.9951171875,0.3681640625,-0.12060546875,1312.4416666428249,1312.4400000572205,1.6665856044255634,18.24951171875,4.45556640625,-10.31494140625
1344.2149999141693,1.14306640625,-0.34765625,-0.0322265625,1312.4466667572658,1312.4450001716614,1.6665856044255634,-1.0986328125,-1.28173828125,12.5732421875
1344.2199997901917,1.01171875,0.27587890625,-0.20703125,1312.451666633288,1312.4500000476835,1.6665856044255634,14.95361328125,4.45556640625,-9.521484375
1344.2249999046326,1.197265625,-0.38623046875,-0.12060546875,1312.456666747729,1312.4550001621246,1.6665856044255634,10.25390625,2.01416015625,10.43701171875
1344.229999780655,0.986328125,0.4208984375,-0.2509765625,1312.4616666237514,1312.460000038147,1.6665856044255634,20.56884765625,6.16455078125,-11.8408203125
1344.2349998950958,1.158203125,-0.48193359375,-0.09765625,1312.4666667381923,1312.465000152588,1.6665856044255634,8.056640625,2.25830078125,8.36181640625
1344.2399997711182,0.98779296875,0.4462890625,-0.18310546875,1312.4716666142149,1312.4700000286102,1.666585604652937,17.76123046875,5.37109375,-9.94873046875
1344.244999885559,1.0498046875,-0.2353515625,-0.03759765625,1312.4766667286556,1312.4750001430511,1.6665856044255634,-5.92041015625,-1.03759765625,7.9345703125
1344.25,1.1513671875,0.0634765625,-0.02783203125,1312.4816668430965,1312.4800000190735,1.666824023004665,10.1318359375,1.52587890625,5.2490234375
1344.2549998760223,0.86376953125,-0.03515625,-0.12841796875,1312.4866667191188,1312.4850001335144,1.6665856044255634,13.5498046875,3.5400390625,-3.7841796875
1344.2599999904633,1.04833984375,0.08837890625,-0.02197265625,1312.4916668335595,1312.4900000095367,1.6668240227772912,7.75146484375,1.40380859375,4.94384765625
1344.2649998664856,0.90576171875,-0.0634765625,-0.1240234375,1312.496666709582,1312.495000123978,1.6665856041981897,12.939453125,3.60107421875,-8.30078125
1344.2699999809265,1.02734375,0.07080078125,-0.033203125,1312.501666824023,1312.5,1.666824023004665,6.591796875,0.54931640625,6.77490234375
1344.2749998569489,1.01904296875,0.24951171875,-0.19677734375,1312.5066667000451,1312.505000114441,1.6665856041981897,17.88330078125,3.60107421875,-3.72314453125
1344.2799999713898,1.0712890625,-0.20703125,-0.13427734375,1312.5116668144865,1312.5099999904637,1.6668240227772912,7.62939453125,1.03759765625,6.04248046875
1344.284999847412,1.072265625,0.2373046875,-0.13330078125,1312.5166666905086,1312.5150001049042,1.6665856044255634,10.68115234375,2.25830078125,0.0
1344.289999961853,1.00390625,-0.38134765625,-0.03564453125,1312.5216668049495,1312.5199999809265,1.666824023004665,2.9296875,0.244140625,6.65283203125
1344.2949998378754,1.03857421875,0.2861328125,-0.08642578125,1312.526666680972,1312.5250000953674,1.666585604652937,13.7939453125,2.86865234375,-1.8310546875
1344.2999999523165,1.0126953125,-0.45654296875,-0.10302734375,1312.531666795413,1312.5299999713898,1.6668240232320386,13.24462890625,3.173828125,0.18310546875
1344.3049998283386,1.05810546875,0.19287109375,-0.15966796875,1312.5366666714351,1312.5350000858307,1.6665856044255634,13.916015625,2.9296875,1.8310546875
1344.3099999427795,1.0302734375,-0.35302734375,-0.2470703125,1312.541666785876,1312.539999961853,1.666824023004665,12.8173828125,3.0517578125,-0.79345703125
1344.314999818802,1.0859375,0.43603515625,-0.126953125,1312.5466666618986,1312.545000076294,1.666585604652937,15.869140625,4.150390625,-7.6904296875
1344.3199999332428,1.064453125,-0.72998046875,-0.05517578125,1312.5516667763393,1312.5499999523165,1.6668240227772912,6.40869140625,0.54931640625,13.24462890625
1344.3249998092651,1.07568359375,0.0205078125,-0.0009765625,1312.5566666523616,1312.5550000667572,1.6665856044255634,5.0048828125,-0.30517578125,8.4228515625
1344.329999923706,0.88623046875,-0.12109375,-0.18310546875,1312.5616667668023,1312.5599999427795,1.6668240227772912,16.6015625,4.39453125,-7.8125
1344.3349997997284,1.10009765625,0.05224609375,-0.04833984375,1312.5666666428249,1312.5650000572205,1.6665856044255634,6.89697265625,0.42724609375,6.65283203125
1344.3399999141693,0.83056640625,0.0361328125,-0.19287109375,1312.5716667572658,1312.5700001716614,1.6665856044255634,17.4560546875,4.57763671875,-13.18359375
1344.3449997901917,1.09228515625,-0.03564453125,0.03125,1312.576666633288,1312.5750000476835,1.6665856044255634,-3.96728515625,-1.5869140625,5.55419921875
1344.3499999046326,1.1826171875,0.52880859375,-0.03857421875,1312.581666747729,1312.5800001621246,1.6665856044255634,17.9443359375,3.0517578125,-0.79345703125
1344.354999780655,0.82373046875,-0.53662109375,-0.1533203125,1312.5866666237514,1312.585000038147,1.6665856044255634,16.41845703125,3.72314453125,-4.638671875
1344.3599998950958,1.1376953125,0.15966796875,-0.19091796875,1312.5916667381923,1312.590000152588,1.6665856044255634,11.474609375,2.0751953125,4.5166015625
1344.3649997711182,0.9501953125,-0.2119140625,-0.208984375,1312.5966666142149,1312.5950000286102,1.666585604652937,12.02392578125,2.685546875,-0.48828125
1344.369999885559,0.97119140625,0.30224609375,-0.0849609375,1312.6016667286556,1312.6000001430511,1.6665856044255634,11.3525390625,3.35693359375,-5.31005859375
1344.375,0.865234375,-0.08837890625,-0.01025390625,1312.6066668430965,1312.6050000190735,1.666824023004665,9.27734375,3.41796875,-7.38525390625
1344.3799998760223,1.01025390625,0.26953125,0.02587890625,1312.6116667191188,1312.6100001335144,1.6665856044255634,5.0048828125,0.54931640625,4.150390625
1344.3849999904633,0.88671875,-0.126953125,-0.1044921875,1312.6166668335595,1312.6150000095367,1.6668240227772912,12.8173828125,2.74658203125,-2.0751953125
1344.3899998664856,1.01220703125,0.1748046875,-0.15673828125,1312.621666709582,1312.620000123978,1.6665856041981897,15.0146484375,2.44140625,3.47900390625
1344.3949999809265,0.9189453125,-0.447265625,-0.3056640625,1312.626666824023,1312.625,1.666824023004665,14.95361328125,3.72314453125,-1.0986328125
1344.3999998569489,1.0693359375,-0.08447265625,-0.01904296875,1312.6316667000451,1312.630000114441,1.6665856041981897,-2.9296875,-1.15966796875,6.8359375
1344.4049999713898,0.87109375,0.16845703125,-0.0712890625,1312.6366668144865,1312.6349999904637,1.6668240227772912,10.986328125,3.41796875,-10.19287109375
1344.409999847412,1.16650390625,-0.1767578125,0.046875,1312.6416666905086,1312.6400001049042,1.6665856044255634,7.62939453125,1.3427734375,10.986328125
1344.414999961853,1.03759765625,0.11376953125,-0.1650390625,1312.6466668049495,1312.6449999809265,1.666824023004665,19.287109375,3.90625,0.0
1344.4199998378754,1.06982421875,-0.18798828125,-0.166015625,1312.651666680972,1312.6500000953674,1.666585604652937,9.46044921875,1.03759765625,7.38525390625
1344.4249999523165,0.951171875,0.2197265625,-0.1953125,1312.656666795413,1312.6549999713898,1.6668240232320386,15.380859375,3.662109375,-6.28662109375
1344.4299998283386,1.171875,-0.38525390625,0.005859375,1312.6616666714351,1312.6600000858307,1.6665856044255634,7.26318359375,1.64794921875,9.58251953125
1344.4349999427795,0.96240234375,0.345703125,-0.11328125,1312.666666785876,1312.664999961853,1.666824023004665,13.5498046875,2.86865234375,0.67138671875
1344.439999818802,1.01025390625,-0.4580078125,-0.06201171875,1312.6716666618986,1312.670000076294,1.666585604652937,5.31005859375,0.244140625,9.3994140625
1344.4449999332428,0.92041015625,0.24365234375,-0.21337890625,1312.6766667763393,1312.6749999523165,1.6668240227772912,19.59228515625,3.90625,-1.77001953125
1344.4499998092651,0.8779296875,-0.27001953125,-0.27880859375,1312.6816666523616,1312.6800000667572,1.6665856044255634,11.65771484375,2.685546875,-1.28173828125
1344.454999923706,0.96630859375,0.2373046875,-0.0009765625,1312.6866667668023,1312.6849999427795,1.6668240227772912,-2.86865234375,-2.38037109375,9.94873046875
1344.4599997997284,0.759765625,-0.2265625,-0.05908203125,1312.6916666428249,1312.6900000572205,1.6665856044255634,11.65771484375,3.23486328125,-7.14111328125
1344.4649999141693,1.09033203125,0.21923828125,0.10546875,1312.6966667572658,1312.6950001716614,1.6665856044255634,2.9296875,0.244140625,2.13623046875
1344.4699997901917,0.7548828125,-0.1591796875,0.03515625,1312.701666633288,1312.7000000476835,1.6665856044255634,8.9111328125,1.64794921875,-6.04248046875
1344.4749999046326,1.03125,-0.2431640625,-0.166015625,1312.706666747729,1312.7050001621246,1.6665856044255634,13.48876953125,3.0517578125,1.46484375
1344.479999780655,0.92138671875,0.21630859375,-0.07666015625,1312.7116666237514,1312.710000038147,1.6665856044255634,14.2822265625,2.3193359375,1.03759765625
1344.4849998950958,1.03125,-0.48291015625,-0.1484375,1312.7166667381923,1312.715000152588,1.6665856044255634,12.8173828125,2.74658203125,0.67138671875
1344.4899997711182,0.96337890625,0.2958984375,-0.1435546875,1312.7216666142149,1312.7200000286102,1.666585604652937,12.63427734375,2.197265625,0.54931640625
1344.494999885559,0.9580078125,-0.443359375,-0.0791015625,1312.7266667286556,1312.7250001430511,1.6665856044255634,3.23486328125,-0.30517578125,10.43701171875
1344.5,0.95654296875,0.28515625,-0.0810546875,1312.7316668430965,1312.7300000190735,1.666824023004665,12.87841796875,2.9296875,-4.94384765625
1344.5049998760223,0.90283203125,-0.40576171875,-0.08203125,1312.7366667191188,1312.7350001335144,1.6665856044255634,10.31494140625,1.8310546875,4.21142578125
1344.5099999904633,0.93017578125,0.27734375,-0.0048828125,1312.7416668335595,1312.7400000095367,1.6668240227772912,11.90185546875,1.3427734375,1.3427734375
1344.5149998664856,0.7890625,-0.33642578125,-0.01318359375,1312.746666709582,1312.745000123978,1.6665856041981897,10.3759765625,2.3193359375,-3.23486328125
1344.5199999809265,1.02001953125,0.4033203125,0.0244140625,1312.751666824023,1312.75,1.666824023004665,14.7705078125,1.77001953125,-1.03759765625
1344.5249998569489,0.986328125,0.185546875,-0.2568359375,1312.7566667000451,1312.755000114441,1.6665856041981897,15.0146484375,3.90625,-8.11767578125
1344.5299999713898,1.06396484375,-0.27392578125,-0.08447265625,1312.7616668144865,1312.7599999904637,1.6668240227772912,2.25830078125,-0.54931640625,8.4228515625
1344.534999847412,0.92578125,0.35009765625,-0.1513671875,1312.7666666905086,1312.7650001049042,1.6665856044255634,15.68603515625,3.47900390625,-11.90185546875
1344.539999961853,1.20654296875,-0.49560546875,0.0166015625,1312.7716668049495,1312.7699999809265,1.666824023004665,-2.197265625,-2.197265625,11.5966796875
1344.5449998378754,1.09130859375,0.38134765625,-0.1005859375,1312.776666680972,1312.7750000953674,1.666585604652937,15.625,2.5634765625,-3.7841796875
1344.5499999523165,0.74853515625,-0.23681640625,-0.095703125,1312.781666795413,1312.7799999713898,1.6668240232320386,11.8408203125,1.5869140625,-2.50244140625
1344.5549998283386,1.03857421875,0.0849609375,-0.09375,1312.7866666714351,1312.7850000858307,1.6665856044255634,10.6201171875,1.03759765625,4.45556640625
1344.5599999427795,0.89501953125,-0.20458984375,-0.2138671875,1312.791666785876,1312.789999961853,1.666824023004665,14.2822265625,2.8076171875,-3.173828125
1344.564999818802,0.955078125,0.1552734375,0.037109375,1312.7966666618986,1312.795000076294,1.666585604652937,1.77001953125,-0.8544921875,3.7841796875
1344.5699999332428,0.77001953125,-0.14013671875,-0.0224609375,1312.8016667763393,1312.7999999523165,1.6668240227772912,10.80322265625,1.8310546875,-7.87353515625
1344.5749998092651,1.11083984375,0.1767578125,0.0439453125,1312.8066666523616,1312.8050000667572,1.6665856044255634,5.615234375,-0.30517578125,2.44140625
1344.579999923706,0.8486328125,-0.189453125,-0.07470703125,1312.8116667668023,1312.8099999427795,1.6668240227772912,12.939453125,1.46484375,-1.3427734375
1344.5849997997284,1.037109375,-0.08154296875,-0.0791015625,1312.8166666428249,1312.8150000572205,1.6665856044255634,8.48388671875,0.91552734375,2.62451171875
1344.5899999141693,0.96337890625,-0.06982421875,-0.15478515625,1312.8216667572658,1312.8200001716614,1.6665856044255634,11.90185546875,1.953125,-2.5634765625
1344.5949997901917,1.01611328125,0.126953125,0.00830078125,1312.826666633288,1312.8250000476835,1.6665856044255634,6.8359375,0.67138671875,1.3427734375
1344.5999999046326,1.03515625,0.32568359375,-0.10986328125,1312.831666747729,1312.8300001621246,1.6665856044255634,15.2587890625,2.38037109375,-2.9296875
1344.604999780655,0.95556640625,-0.4052734375,-0.1376953125,1312.8366666237514,1312.835000038147,1.6665856044255634,8.9111328125,-0.18310546875,7.6904296875
1344.6099998950958,1.04443359375,0.25830078125,-0.220703125,1312.8416667381923,1312.840000152588,1.6665856044255634,16.54052734375,2.9296875,-5.2490234375
1344.6149997711182,1.0732421875,-0.396484375,-0.140625,1312.8466666142149,1312.8450000286102,1.666585604652937,4.2724609375,-0.9765625,8.9111328125
1344.619999885559,1.0068359375,0.41357421875,-0.14013671875,1312.8516667286556,1312.8500001430511,1.6665856044255634,16.90673828125,3.35693359375,-8.544921875
1344.625,0.84375,-0.08740234375,-0.06298828125,1312.8566668430965,1312.8550000190735,1.666824023004665,9.3994140625,1.953125,-10.43701171875
1344.6299998760223,1.1220703125,0.08154296875,0.04541015625,1312.8616667191188,1312.8600001335144,1.6665856044255634,2.197265625,-1.3427734375,4.39453125
1344.6349999904633,0.91748046875,0.03369140625,-0.1005859375,1312.8666668335595,1312.8650000095367,1.6668240227772912,12.3291015625,2.13623046875,-9.27734375
1344.6399998664856,1.119140625,-0.07177734375,-0.10302734375,1312.871666709582,1312.870000123978,1.6665856041981897,7.62939453125,-0.06103515625,5.79833984375
1344.6449999809265,0.9365234375,0.0732421875,-0.14990234375,1312.876666824023,1312.875,1.666824023004665,12.939453125,2.38037109375,-8.23974609375
1344.6499998569489,0.97412109375,-0.0830078125,0.08642578125,1312.8816667000451,1312.880000114441,1.6665856041981897,-1.8310546875,-2.5634765625,7.75146484375
1344.6549999713898,0.970703125,0.08837890625,-0.13818359375,1312.8866668144865,1312.8849999904637,1.6668240227772912,11.65771484375,1.89208984375,-7.9345703125
1344.659999847412,1.03515625,-0.12744140625,-0.05419921875,1312.8916666905086,1312.8900001049042,1.6665856044255634,5.615234375,-1.28173828125,6.53076171875
1344.664999961853,0.7705078125,-0.00439453125,-0.21142578125,1312.8966668049495,1312.8949999809265,1.666824023004665,15.19775390625,2.62451171875,-5.37109375
1344.6699998378754,1.09521484375,0.01123046875,-0.056640625,1312.901666680972,1312.9000000953674,1.666585604652937,5.4931640625,-0.91552734375,2.74658203125
1344.6749999523165,1.0390625,0.29150390625,-0.021484375,1312.906666795413,1312.9049999713898,1.6668240232320386,10.986328125,1.40380859375,-3.5400390625
1344.6799998283386,0.833984375,-0.404296875,0.095703125,1312.9116666714351,1312.9100000858307,1.6665856044255634,8.11767578125,1.40380859375,2.38037109375
1344.6849999427795,1.06298828125,0.3173828125,0.056640625,1312.916666785876,1312.914999961853,1.666824023004665,12.6953125,0.8544921875,-0.48828125
1344.689999818802,0.7998046875,-0.33154296875,-0.0244140625,1312.9216666618986,1312.920000076294,1.666585604652937,12.451171875,1.40380859375,-1.46484375
1344.6949999332428,0.99853515625,0.0478515625,-0.1103515625,1312.9266667763393,1312.9249999523165,1.6668240227772912,12.87841796875,1.40380859375,-0.3662109375
1344.6999998092651,0.93017578125,0.2138671875,-0.19677734375,1312.9316666523616,1312.9300000667572,1.6665856044255634,16.2353515625,2.25830078125,-8.1787109375
1344.704999923706,1.1171875,-0.12841796875,-0.02783203125,1312.9366667668023,1312.9349999427795,1.6668240227772912,0.79345703125,-2.685546875,8.1787109375
1344.7099997997284,0.89599609375,0.19482421875,-0.130859375,1312.9416666428249,1312.9400000572205,1.6665856044255634,12.14599609375,2.197265625,-10.19287109375
1344.7149999141693,1.09765625,-0.34619140625,-0.00048828125,1312.9466667572658,1312.9450001716614,1.6665856044255634,0.1220703125,-2.685546875,9.3994140625
1344.7199997901917,0.93115234375,0.19091796875,-0.16796875,1312.951666633288,1312.9500000476835,1.6665856044255634,12.5732421875,2.5634765625,-10.31494140625
1344.7249999046326,1.21533203125,-0.34814453125,-0.03271484375,1312.956666747729,1312.9550001621246,1.6665856044255634,2.9296875,-2.13623046875,8.4228515625
1344.729999780655,0.91796875,0.3486328125,-0.1708984375,1312.9616666237514,1312.960000038147,1.6665856044255634,16.78466796875,2.5634765625,-9.3994140625
1344.7349998950958,1.0576171875,-0.52783203125,-0.08740234375,1312.9666667381923,1312.965000152588,1.6665856044255634,3.2958984375,-2.13623046875,9.58251953125
1344.7399997711182,0.94384765625,0.4365234375,-0.16064453125,1312.9716666142149,1312.9700000286102,1.666585604652937,16.7236328125,2.9296875,-6.28662109375
1344.744999885559,1.07958984375,-0.51708984375,-0.087890625,1312.9766667286556,1312.9750001430511,1.6665856044255634,1.15966796875,-2.99072265625,13.12255859375
1344.75,1.0537109375,0.05712890625,-0.0703125,1312.9816668430965,1312.9800000190735,1.666824023004665,10.55908203125,0.67138671875,2.44140625
1344.7549998760223,0.90869140625,-0.2138671875,-0.18603515625,1312.9866667191188,1312.9850001335144,1.6665856044255634,12.26806640625,0.79345703125,-1.15966796875
1344.7599999904633,1.00634765625,0.25146484375,-0.0126953125,1312.9916668335595,1312.9900000095367,1.6668240227772912,9.033203125,0.48828125,-0.30517578125
1344.7649998664856,0.80859375,-0.12548828125,-0.0126953125,1312.996666709582,1312.995000123978,1.6665856041981897,9.1552734375,1.40380859375,-8.11767578125
1344.7699999809265,0.9658203125,0.0537109375,0.08984375,1313.001666824023,1313.0,1.666824023004665,3.96728515625,-1.77001953125,3.84521484375
1344.7749998569489,0.8515625,-0.15625,-0.0546875,1313.0066667000451,1313.005000114441,1.6665856041981897,10.009765625,0.42724609375,-2.50244140625
1344.7799999713898,1.0009765625,0.13232421875,-0.07763671875,1313.0116668144865,1313.0099999904637,1.6668240227772912,12.39013671875,0.48828125,-0.42724609375
1344.784999847412,0.83837890625,-0.25732421875,-0.14111328125,1313.0166666905086,1313.0150001049042,1.6665856044255634,14.09912109375,1.64794921875,-5.06591796875
1344.789999961853,0.96875,0.13623046875,-0.00244140625,1313.0216668049495,1313.0199999809265,1.666824023004665,6.34765625,-0.54931640625,1.89208984375
1344.7949998378754,0.8173828125,-0.16943359375,-0.0595703125,1313.026666680972,1313.0250000953674,1.666585604652937,11.1083984375,1.15966796875,-6.4697265625
1344.7999999523165,1.083984375,-0.55615234375,-0.08447265625,1313.031666795413,1313.0299999713898,1.6668240232320386,5.859375,-2.197265625,11.3525390625
1344.8049998283386,1.08203125,0.23876953125,-0.201171875,1313.0366666714351,1313.0350000858307,1.6665856044255634,15.869140625,1.40380859375,-6.591796875
1344.8099999427795,1.11962890625,-0.24560546875,-0.08349609375,1313.041666785876,1313.039999961853,1.666824023004665,4.45556640625,-1.708984375,5.31005859375
1344.814999818802,1.005859375,0.31201171875,-0.10693359375,1313.0466666618986,1313.045000076294,1.666585604652937,12.939453125,0.9765625,-8.9111328125
1344.8199999332428,1.02783203125,-0.61767578125,-0.02392578125,1313.0516667763393,1313.0499999523165,1.6668240227772912,8.60595703125,-0.6103515625,10.31494140625
1344.8249998092651,1.078125,0.0869140625,-0.0302734375,1313.0566666523616,1313.0550000667572,1.6665856044255634,6.89697265625,-1.40380859375,3.90625
1344.829999923706,0.697265625,-0.19287109375,-0.1162109375,1313.0616667668023,1313.0599999427795,1.6668240227772912,12.3291015625,0.732421875,-7.32421875
1344.8349997997284,1.09765625,0.080078125,-0.01806640625,1313.0666666428249,1313.0650000572205,1.6665856044255634,7.14111328125,-1.15966796875,0.79345703125
1344.8399999141693,0.83984375,-0.0234375,-0.06982421875,1313.0716667572658,1313.0700001716614,1.6665856044255634,11.23046875,0.9765625,-10.31494140625
1344.8449997901917,0.9951171875,-0.115234375,0.06640625,1313.076666633288,1313.0750000476835,1.6665856044255634,0.244140625,-2.9296875,5.859375
1344.8499999046326,0.9287109375,0.1123046875,-0.10888671875,1313.081666747729,1313.0800001621246,1.6665856044255634,10.1318359375,0.79345703125,-7.50732421875
1344.854999780655,1.17138671875,-0.05615234375,0.0478515625,1313.0866666237514,1313.085000038147,1.6665856044255634,0.42724609375,-3.23486328125,5.2490234375
1344.8599998950958,1.01171875,0.015625,-0.16357421875,1313.0916667381923,1313.090000152588,1.6665856044255634,11.1083984375,0.30517578125,-5.615234375
1344.8649997711182,1.01806640625,-0.080078125,-0.0869140625,1313.0966666142149,1313.0950000286102,1.666585604652937,7.2021484375,-2.01416015625,1.77001953125
1344.869999885559,0.8720703125,0.06982421875,-0.193359375,1313.1016667286556,1313.1000001430511,1.6665856044255634,14.892578125,0.79345703125,-7.2021484375
1344.875,0.97998046875,-0.4443359375,-0.07763671875,1313.1066668430965,1313.1050000190735,1.666824023004665,8.60595703125,-1.03759765625,2.74658203125
1344.8799998760223,0.94873046875,0.3125,0.0029296875,1313.1116667191188,1313.1100001335144,1.6665856044255634,10.498046875,-0.6103515625,-2.01416015625
1344.8849999904633,0.74267578125,-0.404296875,0.02734375,1313.1166668335595,1313.1150000095367,1.6668240227772912,9.3994140625,-0.18310546875,0.244140625
1344.8899998664856,0.98486328125,0.24560546875,-0.0703125,1313.121666709582,1313.120000123978,1.6665856041981897,10.498046875,-0.732421875,0.8544921875
1344.8949999809265,0.880859375,-0.3525390625,-0.09228515625,1313.126666824023,1313.125,1.666824023004665,11.3525390625,0.18310546875,2.50244140625
1344.8999998569489,0.94677734375,-0.6044921875,-0.056640625,1313.1316667000451,1313.130000114441,1.6665856041981897,8.85009765625,-1.15966796875,7.01904296875
1344.9049999713898,0.92724609375,0.52197265625,-0.13427734375,1313.1366668144865,1313.1349999904637,1.6668240227772912,18.798828125,1.77001953125,-6.8359375
1344.909999847412,1.0546875,-0.69580078125,-0.1298828125,1313.1416666905086,1313.1400001049042,1.6665856044255634,8.72802734375,-2.01416015625,12.5732421875
1344.914999961853,0.97021484375,0.27099609375,-0.201171875,1313.1466668049495,1313.1449999809265,1.666824023004665,18.4326171875,0.6103515625,-3.35693359375
1344.9199998378754,0.908203125,-0.533203125,-0.1982421875,1313.151666680972,1313.1500000953674,1.666585604652937,9.3994140625,-1.0986328125,5.55419921875
1344.9249999523165,0.95849609375,0.466796875,-0.0908203125,1313.156666795413,1313.1549999713898,1.6668240232320386,14.58740234375,0.48828125,-8.9111328125
1344.9299998283386,0.93115234375,-0.58740234375,0.09912109375,1313.1616666714351,1313.1600000858307,1.6665856044255634,5.37109375,-1.64794921875,7.6904296875
1344.9349999427795,1.10986328125,0.384765625,-0.021484375,1313.166666785876,1313.164999961853,1.666824023004665,14.46533203125,-0.79345703125,0.0
1344.939999818802,0.67333984375,-0.41748046875,-0.021484375,1313.1716666618986,1313.170000076294,1.666585604652937,11.04736328125,-0.18310546875,2.44140625
1344.9449999332428,0.9462890625,0.15625,-0.15625,1313.1766667763393,1313.1749999523165,1.6668240227772912,20.81298828125,-0.42724609375,1.15966796875
1344.9499998092651,0.88427734375,-0.0009765625,-0.2646484375,1313.1816666523616,1313.1800000667572,1.6665856044255634,14.6484375,1.03759765625,-8.30078125
1344.954999923706,0.9443359375,-0.06640625,0.04736328125,1313.1866667668023,1313.1849999427795,1.6668240227772912,-4.0283203125,-5.06591796875,2.99072265625
1344.9599997997284,0.9150390625,0.046875,-0.0146484375,1313.1916666428249,1313.1900000572205,1.6665856044255634,7.26318359375,-1.03759765625,-9.33837890625
1344.9649999141693,1.083984375,0.048828125,0.06396484375,1313.1966667572658,1313.1950001716614,1.6665856044255634,1.3427734375,-2.50244140625,0.9765625
1344.9699997901917,1.00927734375,-0.07861328125,-0.08154296875,1313.201666633288,1313.2000000476835,1.6665856044255634,9.521484375,-0.8544921875,-4.39453125
1344.9749999046326,0.9189453125,-0.2890625,-0.13671875,1313.206666747729,1313.2050001621246,1.6665856044255634,12.451171875,-0.8544921875,1.708984375
1344.979999780655,0.9794921875,0.20703125,-0.12841796875,1313.2116666237514,1313.210000038147,1.6665856044255634,13.5498046875,0.0,-4.7607421875
1344.9849998950958,0.927734375,-0.3896484375,-0.0498046875,1313.2166667381923,1313.215000152588,1.6665856044255634,10.1318359375,-0.9765625,1.220703125
1344.9899997711182,1.02783203125,0.2919921875,-0.06982421875,1313.2216666142149,1313.2200000286102,1.666585604652937,8.85009765625,-1.46484375,-0.54931640625
1344.994999885559,0.740234375,-0.49169921875,-0.04833984375,1313.2266667286556,1313.2250001430511,1.6665856044255634,10.8642578125,-0.67138671875,3.41796875
1345.0,1.0693359375,0.185546875,-0.041015625,1313.2316668430965,1313.2300000190735,1.666824023004665,10.8642578125,-1.953125,1.220703125
1345.0049998760223,0.8583984375,-0.24951171875,-0.0966796875,1313.2366667191188,1313.2350001335144,1.6665856044255634,12.20703125,-0.6103515625,-5.92041015625
1345.0099999904633,0.96142578125,0.1591796875,0.03759765625,1313.2416668335595,1313.2400000095367,1.6668240227772912,6.103515625,-3.11279296875,3.90625
1345.0149998664856,0.79296875,-0.19921875,-0.025390625,1313.246666709582,1313.245000123978,1.6665856041981897,9.21630859375,-1.03759765625,-10.986328125
1345.0199999809265,1.220703125,0.14794921875,0.0498046875,1313.251666824023,1313.25,1.666824023004665,3.96728515625,-3.23486328125,3.0517578125
1345.0249998569489,1.00244140625,0.2275390625,-0.13916015625,1313.2566667000451,1313.255000114441,1.6665856041981897,15.07568359375,-0.244140625,-2.74658203125
1345.0299999713898,0.94677734375,-0.35546875,-0.19580078125,1313.2616668144865,1313.2599999904637,1.6668240227772912,11.16943359375,-1.0986328125,1.46484375
1345.034999847412,1.10205078125,0.330078125,-0.11767578125,1313.2666666905086,1313.2650001049042,1.6665856044255634,13.97705078125,-0.67138671875,-4.5166015625
1345.039999961853,1.07421875,-0.45361328125,-0.025390625,1313.2716668049495,1313.2699999809265,1.666824023004665,6.28662109375,-2.44140625,3.41796875
1345.0449998378754,1.046875,0.28173828125,-0.07177734375,1313.276666680972,1313.2750000953674,1.666585604652937,13.61083984375,-0.48828125,-2.62451171875
1345.0499999523165,0.8173828125,0.0048828125,-0.150390625,1313.281666795413,1313.2799999713898,1.6668240232320386,11.29150390625,-0.54931640625,-5.4931640625
1345.0549998283386,1.08349609375,-0.044921875,-0.07763671875,1313.2866666714351,1313.2850000858307,1.6665856044255634,7.6904296875,-3.23486328125,2.38037109375
1345.0599999427795,0.87060546875,0.0771484375,-0.1796875,1313.291666785876,1313.289999961853,1.666824023004665,13.5498046875,0.1220703125,-10.19287109375
1345.064999818802,0.98828125,-0.0537109375,0.05322265625,1313.2966666618986,1313.295000076294,1.666585604652937,-3.41796875,-5.06591796875,2.13623046875
1345.0699999332428,0.9208984375,0.076171875,-0.09814453125,1313.3016667763393,1313.2999999523165,1.6668240227772912,9.033203125,-0.8544921875,-9.58251953125
1345.0749998092651,1.1357421875,-0.015625,-0.0234375,1313.3066666523616,1313.3050000667572,1.6665856044255634,3.41796875,-3.84521484375,4.39453125
1345.079999923706,0.94384765625,-0.0146484375,-0.162109375,1313.3116667668023,1313.3099999427795,1.6668240227772912,10.498046875,-0.9765625,-6.9580078125
1345.0849997997284,1.1279296875,-0.19140625,-0.0341796875,1313.3166666428249,1313.3150000572205,1.6665856044255634,3.47900390625,-3.84521484375,3.96728515625
1345.0899999141693,0.88330078125,0.17041015625,-0.12158203125,1313.3216667572658,1313.3200001716614,1.6665856044255634,11.65771484375,-0.732421875,-9.3994140625
1345.0949997901917,1.13916015625,-0.17041015625,0.0478515625,1313.326666633288,1313.3250000476835,1.6665856044255634,-1.15966796875,-5.55419921875,7.99560546875
1345.0999999046326,1.0869140625,0.32470703125,-0.03955078125,1313.331666747729,1313.3300001621246,1.6665856044255634,14.95361328125,-1.3427734375,0.3662109375
1345.104999780655,0.76953125,-0.47021484375,-0.11572265625,1313.3366666237514,1313.335000038147,1.6665856044255634,13.24462890625,-0.732421875,1.5869140625
1345.1099998950958,1.03369140625,0.28515625,-0.09521484375,1313.3416667381923,1313.340000152588,1.6665856044255634,14.7705078125,-0.732421875,-2.3193359375
1345.1149997711182,0.8046875,-0.541015625,-0.06787109375,1313.3466666142149,1313.3450000286102,1.666585604652937,9.8876953125,-1.3427734375,2.99072265625
1345.119999885559,0.99755859375,0.3017578125,-0.00927734375,1313.3516667286556,1313.3500001430511,1.6665856044255634,11.53564453125,-2.13623046875,0.42724609375
1345.125,0.9560546875,0.3583984375,-0.142578125,1313.3566668430965,1313.3550000190735,1.666824023004665,14.22119140625,-0.244140625,-11.04736328125
1345.1299998760223,1.1201171875,-0.2119140625,-0.046875,1313.3616667191188,1313.3600001335144,1.6665856044255634,0.67138671875,-5.06591796875,7.6904296875
1345.1349999904633,0.92041015625,0.0380859375,-0.17138671875,1313.3666668335595,1313.3650000095367,1.6668240227772912,11.41357421875,-1.03759765625,-5.37109375
1345.1399998664856,1.05908203125,-0.25439453125,-0.046875,1313.371666709582,1313.370000123978,1.6665856041981897,3.7841796875,-3.72314453125,2.50244140625
1345.1449999809265,1.09375,0.2978515625,-0.169921875,1313.376666824023,1313.375,1.666824023004665,13.671875,-0.732421875,-9.1552734375
1345.1499998569489,1.17578125,-0.416015625,-0.03076171875,1313.3816667000451,1313.380000114441,1.6665856041981897,1.52587890625,-4.638671875,5.18798828125
1345.1549999713898,1.0078125,0.3046875,-0.16064453125,1313.3866668144865,1313.3849999904637,1.6668240227772912,14.58740234375,-0.9765625,-1.64794921875
1345.159999847412,1.00048828125,-0.32470703125,-0.1240234375,1313.3916666905086,1313.3900001049042,1.6665856044255634,11.53564453125,-2.0751953125,3.90625
1345.164999961853,0.94287109375,0.15283203125,-0.201171875,1313.3966668049495,1313.3949999809265,1.666824023004665,15.0146484375,-0.8544921875,-6.591796875
1345.1699998378754,1.10205078125,-0.220703125,-0.05029296875,1313.401666680972,1313.4000000953674,1.666585604652937,1.03759765625,-5.2490234375,6.89697265625
1345.1749999523165,1.03125,0.212890625,0.01123046875,1313.406666795413,1313.4049999713898,1.6668240232320386,6.103515625,-2.99072265625,0.9765625
1345.1799998283386,0.84130859375,-0.25390625,-0.00048828125,1313.4116666714351,1313.4100000858307,1.6665856044255634,8.72802734375,-1.89208984375,-7.568359375
1345.1849999427795,1.1240234375,0.30419921875,0.0458984375,1313.416666785876,1313.414999961853,1.666824023004665,8.72802734375,-2.25830078125,-0.79345703125
1345.189999818802,0.7802734375,-0.2646484375,-0.0361328125,1313.4216666618986,1313.420000076294,1.666585604652937,10.68115234375,-1.46484375,-5.55419921875
1345.1949999332428,1.07373046875,0.076171875,-0.09912109375,1313.4266667763393,1313.4249999523165,1.6668240227772912,11.474609375,-2.25830078125,1.3427734375
1345.1999998092651,0.888671875,-0.14306640625,-0.19677734375,1313.4316666523616,1313.4300000667572,1.6665856044255634,13.12255859375,-0.6103515625,-11.90185546875
1345.204999923706,1.064453125,0.11474609375,0.02880859375,1313.4366667668023,1313.4349999427795,1.6668240227772912,-2.38037109375,-5.92041015625,5.126953125
1345.2099997997284,0.837890625,-0.09423828125,-0.06396484375,1313.4416666428249,1313.4400000572205,1.6665856044255634,12.451171875,-0.244140625,-12.14599609375
1345.2149999141693,1.07958984375,0.0634765625,0.04833984375,1313.4466667572658,1313.4450001716614,1.6665856044255634,2.38037109375,-4.2724609375,2.44140625
1345.2199997901917,0.7919921875,-0.04736328125,-0.076171875,1313.451666633288,1313.4500000476835,1.6665856044255634,9.94873046875,-1.0986328125,-11.04736328125
1345.2249999046326,1.0458984375,-0.462890625,-0.1943359375,1313.456666747729,1313.4550001621246,1.6665856044255634,7.14111328125,-3.84521484375,7.38525390625
1345.229999780655,1.00341796875,0.38720703125,-0.09912109375,1313.4616666237514,1313.460000038147,1.6665856044255634,7.080078125,-3.0517578125,0.18310546875
1345.2349998950958,0.90380859375,-0.5224609375,-0.0341796875,1313.4666667381923,1313.465000152588,1.6665856044255634,9.27734375,-1.953125,-6.77490234375
1345.2399997711182,1.11474609375,0.42041015625,-0.07958984375,1313.4716666142149,1313.4700000286102,1.666585604652937,8.23974609375,-2.3193359375,1.03759765625
1345.244999885559,0.93603515625,-0.42626953125,-0.05322265625,1313.4766667286556,1313.4750001430511,1.6665856044255634,8.30078125,-2.01416015625,2.9296875
1345.25,1.02880859375,-0.18505859375,-0.1240234375,1313.4816668430965,1313.4800000190735,1.666824023004665,6.2255859375,-2.86865234375,1.8310546875
1345.2549998760223,1.064453125,0.31982421875,-0.15576171875,1313.4866667191188,1313.4850001335144,1.6665856044255634,14.404296875,-0.18310546875,-10.3759765625
1345.2599999904633,1.19091796875,-0.42822265625,-0.0185546875,1313.4916668335595,1313.4900000095367,1.6668240227772912,0.244140625,-5.06591796875,8.23974609375
1345.2649998664856,1.001953125,0.30517578125,-0.1435546875,1313.496666709582,1313.495000123978,1.6665856041981897,13.3056640625,-1.0986328125,-5.06591796875
1345.2699999809265,1.0283203125,-0.4521484375,-0.1376953125,1313.501666824023,1313.5,1.666824023004665,7.38525390625,-3.72314453125,5.7373046875
1345.2749998569489,0.9404296875,0.16455078125,-0.1640625,1313.5066667000451,1313.505000114441,1.6665856041981897,13.7939453125,-1.64794921875,-4.2724609375
1345.2799999713898,1.1552734375,-0.353515625,-0.1015625,1313.5116668144865,1313.5099999904637,1.6668240227772912,4.21142578125,-4.7607421875,9.27734375
1345.284999847412,0.95849609375,0.32568359375,-0.17529296875,1313.5166666905086,1313.5150001049042,1.6665856044255634,16.11328125,0.06103515625,-10.1318359375
1345.289999961853,1.095703125,-0.451171875,-0.05712890625,1313.5216668049495,1313.5199999809265,1.666824023004665,1.28173828125,-5.126953125,5.9814453125
1345.2949998378754,0.91015625,0.4482421875,-0.138671875,1313.526666680972,1313.5250000953674,1.666585604652937,16.29638671875,-0.244140625,-10.1318359375
1345.2999999523165,0.80419921875,-0.20703125,-0.0634765625,1313.531666795413,1313.5299999713898,1.6668240232320386,10.55908203125,-1.8310546875,-8.6669921875
1345.3049998283386,1.0791015625,-0.00830078125,-0.0205078125,1313.5366666714351,1313.5350000858307,1.6665856044255634,5.55419921875,-3.96728515625,3.23486328125
1345.3099999427795,0.92626953125,-0.01318359375,-0.1455078125,1313.541666785876,1313.539999961853,1.666824023004665,11.53564453125,-1.40380859375,-10.6201171875
1345.314999818802,1.11474609375,0.0498046875,0.0078125,1313.5466666618986,1313.545000076294,1.666585604652937,2.86865234375,-4.57763671875,2.86865234375
1345.3199999332428,0.87109375,0.02783203125,-0.0859375,1313.5516667763393,1313.5499999523165,1.6668240227772912,10.498046875,-1.52587890625,-13.24462890625
1345.3249998092651,0.8857421875,-0.46728515625,-0.083984375,1313.5566666523616,1313.5550000667572,1.6665856044255634,9.09423828125,-2.3193359375,2.74658203125
1345.329999923706,1.0888671875,0.26220703125,-0.1611328125,1313.5616667668023,1313.5599999427795,1.6668240227772912,17.4560546875,-1.40380859375,-3.72314453125
1345.3349997997284,1.052734375,-0.4560546875,-0.15673828125,1313.5666666428249,1313.5650000572205,1.6665856044255634,5.06591796875,-4.0283203125,4.7607421875
1345.3399999141693,0.99951171875,0.3505859375,-0.09716796875,1313.5716667572658,1313.5700001716614,1.6665856044255634,15.380859375,-0.9765625,-6.65283203125
1345.3449997901917,0.9033203125,-0.50439453125,-0.0673828125,1313.576666633288,1313.5750000476835,1.6665856044255634,7.2021484375,-2.74658203125,4.0283203125
1345.3499999046326,1.0908203125,0.35107421875,-0.06103515625,1313.581666747729,1313.5800001621246,1.6665856044255634,12.939453125,-1.03759765625,-5.55419921875
1345.354999780655,0.98291015625,-0.3330078125,-0.06884765625,1313.5866666237514,1313.585000038147,1.6665856044255634,8.11767578125,-2.8076171875,5.92041015625
1345.3599998950958,0.99462890625,0.08203125,-0.1455078125,1313.5916667381923,1313.590000152588,1.6665856044255634,13.36669921875,-1.89208984375,-1.52587890625
1345.3649997711182,1.0205078125,-0.27587890625,-0.19091796875,1313.5966666142149,1313.5950000286102,1.666585604652937,8.60595703125,-2.9296875,2.197265625
1345.369999885559,1.06298828125,0.2470703125,-0.11328125,1313.6016667286556,1313.6000001430511,1.6665856044255634,12.14599609375,-1.40380859375,-5.126953125
1345.375,0.857421875,0.0625,-0.15576171875,1313.6066668430965,1313.6050000190735,1.666824023004665,11.29150390625,-0.8544921875,-8.72802734375
1345.3799998760223,1.0546875,-0.07568359375,-0.0078125,1313.6116667191188,1313.6100001335144,1.6665856044255634,2.13623046875,-4.638671875,2.74658203125
1345.3849999904633,0.8642578125,0.03759765625,-0.12548828125,1313.6166668335595,1313.6150000095367,1.6668240227772912,8.9111328125,-1.28173828125,-8.544921875
1345.3899998664856,1.12939453125,-0.015625,0.0205078125,1313.621666709582,1313.620000123978,1.6665856041981897,1.953125,-5.31005859375,5.79833984375
1345.3949999809265,0.90380859375,0.16943359375,-0.14306640625,1313.626666824023,1313.625,1.666824023004665,13.916015625,-0.48828125,-14.09912109375
1345.3999998569489,0.7744140625,-0.494140625,-0.1142578125,1313.6316667000451,1313.630000114441,1.6665856041981897,10.986328125,-1.15966796875,-2.0751953125
1345.4049999713898,1.1650390625,0.4775390625,-0.017578125,1313.6366668144865,1313.6349999904637,1.6668240227772912,13.916015625,-1.708984375,-1.46484375
1345.409999847412,0.72314453125,-0.54052734375,-0.05712890625,1313.6416666905086,1313.6400001049042,1.6665856044255634,9.765625,-1.3427734375,1.8310546875
1345.414999961853,1.05712890625,0.203125,-0.05810546875,1313.6466668049495,1313.6449999809265,1.666824023004665,12.20703125,-2.25830078125,-0.9765625
1345.4199998378754,0.86181640625,-0.2373046875,-0.0869140625,1313.651666680972,1313.6500000953674,1.666585604652937,9.33837890625,-1.64794921875,-4.0283203125
1345.4249999523165,1.03759765625,0.30419921875,-0.04833984375,1313.656666795413,1313.6549999713898,1.6668240232320386,11.53564453125,-1.77001953125,-3.662109375
1345.4299998283386,0.81005859375,-0.2255859375,-0.0595703125,1313.6616666714351,1313.6600000858307,1.6665856044255634,9.58251953125,-0.9765625,-5.615234375
1345.4349999427795,0.97998046875,0.03271484375,0.01123046875,1313.666666785876,1313.664999961853,1.666824023004665,6.65283203125,-2.9296875,2.9296875
1345.439999818802,0.7919921875,-0.1376953125,-0.0654296875,1313.6716666618986,1313.670000076294,1.666585604652937,8.6669921875,-2.0751953125,-4.7607421875
1345.4449999332428,1.0146484375,0.0712890625,-0.10400390625,1313.6766667763393,1313.6749999523165,1.6668240227772912,9.765625,-2.44140625,0.6103515625
1345.4499998092651,0.89404296875,0.30322265625,-0.18505859375,1313.6816666523616,1313.6800000667572,1.6665856044255634,17.88330078125,0.1220703125,-7.26318359375
1345.454999923706,0.9326171875,-0.353515625,-0.05810546875,1313.6866667668023,1313.6849999427795,1.6668240227772912,-1.40380859375,-5.31005859375,5.06591796875
1345.4599997997284,0.9423828125,0.3486328125,-0.10888671875,1313.6916666428249,1313.6900000572205,1.6665856044255634,11.16943359375,-0.6103515625,-11.3525390625
1345.4649999141693,1.1552734375,-0.4970703125,-0.00146484375,1313.6966667572658,1313.6950001716614,1.6665856044255634,1.3427734375,-5.126953125,11.23046875
1345.4699997901917,0.970703125,-0.09716796875,-0.10546875,1313.701666633288,1313.7000000476835,1.6665856044255634,14.0380859375,-0.6103515625,-3.84521484375
1345.4749999046326,0.99951171875,0.27880859375,-0.150390625,1313.706666747729,1313.7050001621246,1.6665856044255634,12.6953125,-0.8544921875,-11.65771484375
1345.479999780655,1.17919921875,-0.4833984375,-0.01513671875,1313.7116666237514,1313.710000038147,1.6665856044255634,-0.244140625,-5.31005859375,9.6435546875
1345.4849998950958,0.98876953125,0.4111328125,-0.10205078125,1313.7166667381923,1313.715000152588,1.6665856044255634,14.95361328125,-0.79345703125,-9.70458984375
1345.4899997711182,1.01611328125,-0.60888671875,-0.130859375,1313.7216666142149,1313.7200000286102,1.666585604652937,6.103515625,-4.08935546875,8.544921875
1345.494999885559,0.955078125,0.25244140625,-0.208984375,1313.7266667286556,1313.7250001430511,1.6665856044255634,17.39501953125,-1.15966796875,-4.7607421875
1345.5,1.03857421875,-0.43212890625,-0.173828125,1313.7316668430965,1313.7300000190735,1.666824023004665,3.41796875,-4.45556640625,8.9111328125
1345.5049998760223,1.048828125,0.40673828125,-0.16845703125,1313.7366667191188,1313.7350001335144,1.6665856044255634,16.29638671875,-0.54931640625,-9.70458984375
1345.5099999904633,1.07373046875,-0.5810546875,-0.0537109375,1313.7416668335595,1313.7400000095367,1.6668240227772912,0.8544921875,-4.94384765625,6.28662109375
1345.5149998664856,1.02392578125,0.4599609375,-0.09765625,1313.746666709582,1313.745000123978,1.6665856041981897,13.5498046875,-0.79345703125,-7.568359375
1345.5199999809265,1.02490234375,-0.18505859375,0.013671875,1313.751666824023,1313.75,1.666824023004665,4.21142578125,-3.47900390625,2.44140625
1345.5249998569489,1.080078125,0.02685546875,-0.1064453125,1313.7566667000451,1313.755000114441,1.6665856041981897,7.6904296875,-2.99072265625,1.40380859375
1345.5299999713898,0.94775390625,-0.11962890625,-0.14599609375,1313.7616668144865,1313.7599999904637,1.6668240227772912,11.1083984375,-1.3427734375,-6.7138671875
1345.534999847412,1.0078125,0.1962890625,-0.02685546875,1313.7666666905086,1313.7650001049042,1.6665856044255634,8.7890625,-1.953125,-0.8544921875
1345.539999961853,0.92822265625,0.02978515625,-0.15185546875,1313.7716668049495,1313.7699999809265,1.666824023004665,9.6435546875,-1.52587890625,-7.99560546875
1345.5449998378754,1.06494140625,-0.00048828125,-0.01171875,1313.776666680972,1313.7750000953674,1.666585604652937,3.662109375,-4.45556640625,1.8310546875
1345.5499999523165,0.96630859375,-0.04150390625,-0.18212890625,1313.781666795413,1313.7799999713898,1.6668240232320386,11.04736328125,-1.64794921875,-8.4228515625
1345.5549998283386,1.1650390625,0.12890625,-0.06640625,1313.7866666714351,1313.7850000858307,1.6665856044255634,5.92041015625,-3.5400390625,-2.13623046875
1345.5599999427795,0.96533203125,-0.044921875,-0.1962890625,1313.791666785876,1313.789999961853,1.666824023004665,15.13671875,-0.54931640625,-11.962890625
1345.564999818802,1.03369140625,-0.02490234375,0.00634765625,1313.7966666618986,1313.795000076294,1.666585604652937,-0.244140625,-5.43212890625,3.7841796875
1345.5699999332428,0.9072265625,0.02685546875,-0.0927734375,1313.8016667763393,1313.7999999523165,1.6668240227772912,10.80322265625,-0.8544921875,-10.7421875
1345.5749998092651,0.94921875,-0.4775390625,-0.05224609375,1313.8066666523616,1313.8050000667572,1.6665856044255634,9.46044921875,-1.40380859375,2.685546875
1345.579999923706,1.09228515625,0.2939453125,-0.1044921875,1313.8116667668023,1313.8099999427795,1.6668240227772912,14.7705078125,-0.9765625,-4.21142578125
1345.5849997997284,0.8681640625,-0.353515625,-0.16845703125,1313.8166666428249,1313.8150000572205,1.6665856044255634,9.09423828125,-2.13623046875,2.197265625
1345.5899999141693,1.08203125,0.3662109375,-0.0869140625,1313.8216667572658,1313.8200001716614,1.6665856044255634,12.63427734375,-0.8544921875,-7.4462890625
1345.5949997901917,0.96240234375,-0.45458984375,-0.0400390625,1313.826666633288,1313.8250000476835,1.6665856044255634,8.11767578125,-1.8310546875,4.150390625
1345.5999999046326,1.1103515625,-0.21435546875,-0.03564453125,1313.831666747729,1313.8300001621246,1.6665856044255634,1.0986328125,-4.2724609375,4.39453125
1345.604999780655,0.9638671875,0.1240234375,-0.19482421875,1313.8366666237514,1313.835000038147,1.6665856044255634,13.3056640625,-0.9765625,-6.40869140625
